diff_pressure_horizontal,diff_pressure_vertical,diff_pressure_central,time,accel_x,accel_y,accel_z
29.48333359,-1.666666627,276.6333313,4000.006484895058,3.118315458,-3.535048962,12.4924221
37.95000076,-2.200000048,278.7166748,4000.0164849112703,-1.005908251,-4.646337986,19.46612167
40.58333206,-2.516666651,279.7000122,4000.026484927482,1.973496199,1.283730507,17.41658211
39.65000153,1.149999976,280.6000061,4000.0364849436946,0.8430469036,1.072968841,19.46612167
32.61666489,3.349999905,275.1333313,4000.0464849599066,1.65735364,-2.471660376,15.53409767
24.78333282,3.25,269.2000122,4000.056484976119,-2.46208024,-6.088140011,15.49577713
24.51666641,0.1000000015,263.9833374,4000.0664849923314,1.063388705,-3.956572533,9.939331055
30.13333321,2.816666603,261.2333374,4000.0764850085434,1.254990339,0.2299218774,14.43717861
35.88333511,4.849999905,257.7833252,4000.086485024756,3.712280512,-1.757944465,17.66087532
35.46666718,7.466666698,257.8166809,4000.0964850409678,-3.812871218,-5.072651386,19.46612167
31.81666756,9.866666794,262.6833191,4000.10648505718,-2.121987343,-4.967270851,19.46612167
28.66666603,10.03333378,266.6499939,4000.1164850733926,4.004472733,1.278940439,19.46612167
24.31666756,6.866666794,268.2000122,4000.1264850896046,3.103945494,0.7855664492,19.46612167
22.68333244,6.366666794,267.2166748,4000.136485105817,6.02107954,-3.24764657,19.46612167
23.54999924,4.25,267.1833191,4000.146485122029,2.093247175,-6.993457317,17.63692474
21.38333321,4.583333492,264.8999939,4000.1564851382414,6.423442841,-3.415297985,13.94859409
18.46666718,5.116666794,265.7333374,4000.1664851544538,6.768325329,1.245410204,17.37347221
13.0,0.01666666754,263.8166809,4000.1764851706657,4.85710001,-3.02251482,18.67157364
12.5,-1.933333278,267.8500061,4000.186485186878,6.811435699,-4.536167145,19.46612167
22.25,0.05000000075,264.0499878,4000.1964852030906,0.450263679,-2.045346737,19.46612167
32.29999924,1.583333373,265.1833191,4000.2064852193025,6.136040211,1.916015744,19.46612167
36.29999924,1.533333302,268.6499939,4000.216485235515,7.060517788,1.695673943,16.94236946
35.75,1.0,269.1499939,4000.226485251727,0.5748047233,-3.899091959,16.55916595
39.26666641,-0.08333333582,269.8833313,4000.2364852679393,3.994892836,-5.613925934,19.41881943
38.40000153,1.316666722,273.1333313,4000.2464852841517,5.096601963,-0.01437011734,13.64682198
35.01666641,-1.149999976,274.4833374,4000.2564853003637,0.89573735,1.59029305,19.46612167
35.76666641,-1.283333302,272.2999878,4000.266485316576,6.926396847,-2.184257984,17.9291172
36.41666794,2.083333254,271.3166809,4000.276485332788,0.9771680236,-5.944438934,19.46612167
35.43333435,-0.150000006,266.0499878,4000.2864853490005,0.450263679,-2.692002058,19.46612167
41.76666641,-2.516666651,262.25,4000.296485365213,4.330195427,-1.781894565,19.46612167
50.34999847,4.683333397,260.8999939,4000.306485381425,8.78014183,-1.729204178,19.46612167
47.04999924,11.38333321,260.8166809,4000.3164853976373,1.944755912,-4.885839939,19.46612167
41.58333206,14.4333334,257.7000122,4000.3264854138492,6.030659676,-6.998247147,19.46612167
42.83333206,17.95000076,258.6833191,4000.3364854300617,5.417534351,-0.9915381074,19.46612167
45.68333435,23.64999962,259.25,4000.346485446274,3.42487812,0.7568262219,19.46612167
44.63333511,24.53333282,263.1499939,4000.356485462486,6.940766811,-5.891748428,15.87898064
42.75,22.33333397,265.3999939,4000.3664854786985,0.2347119302,-6.02107954,16.96152878
40.68333435,20.71666718,263.4333191,4000.3764854949104,1.911225677,-0.08622070402,19.46612167
39.31666565,22.11666679,264.9166565,4000.386485511123,2.466870308,4.023633003,19.46612167
39.13333511,24.85000038,261.1000061,4000.3964855273352,0.07664062828,-0.8622070551,10.98834991
40.81666565,28.10000038,259.6333313,4000.406485543547,0.04311035201,-3.099155426,6.643784523
40.75,28.10000038,255.9499969,4000.4164855597596,2.917133808,-3.903882027,3.127895594
39.54999924,26.06666756,257.6833191,4000.426485575972,3.899091959,2.356699228,5.278623104
36.13333511,21.51666641,260.0666809,4000.436485592184,3.621269703,0.7855664492,6.504873276
31.71666718,13.16666698,262.3500061,4000.4464856083964,1.417851567,-3.271596909,16.21907234
27.46666718,9.833333015,262.3833313,4000.4564856246084,0.7328760028,-4.612807751,15.88376999
29.86666679,8.433333397,264.4666748,4000.466485640821,3.927832127,-1.686093807,11.60626507
37.11666489,9.100000381,268.5499878,4000.476485657033,5.024751186,2.773432732,16.88967896
36.79999924,5.666666508,266.9666748,4000.486485673245,2.217788219,-2.883603573,19.46612167
32.15000153,3.166666746,266.2833252,4000.4964856894576,2.46208024,-6.47134304,19.46612167
31.26666641,2.099999905,261.0,4000.5064857056695,1.456171989,-1.963916063,19.46612167
35.5,1.266666651,259.9833374,4000.516485721882,2.553090811,0.7520361543,13.64203167
32.40000153,7.566666603,251.3166656,4000.5264857380944,6.725214958,-1.911225677,13.59892178
18.95000076,16.03333282,251.1333313,4000.5364857543063,0.6945556998,-4.646337986,19.33259773
14.16666698,28.21666718,250.2166595,4000.5464857705188,4.052373409,-6.073769569,19.46612167
20.23333359,39.59999847,247.5333405,4000.5564857867307,5.786367416,0.2490820438,18.8248539
26.56666756,40.26666641,242.4499969,4000.566485802943,5.877377987,0.1101709008,17.58902359
26.18333244,37.65000153,240.1666718,4000.5764858191556,3.923042059,-1.049018621,8.612490654
26.53333282,40.95000076,246.7833405,4000.5864858353675,2.68721199,-5.537285328,4.962480545
26.35000038,42.06666565,251.3999939,4000.59648585158,4.435576439,0.450263679,2.835703135
25.01666641,39.38333511,253.3833313,4000.606485867792,6.801855564,1.072968841,11.23264217
25.95000076,36.61666489,251.5,4000.6164858840043,4.311035156,0.9388477206,11.69727612
24.48333359,33.95000076,253.3500061,4000.6264859002167,-1.393901467,-4.028422832,11.34760284
22.45000076,27.68333244,247.5833282,4000.6364859164287,1.623823285,-3.640429735,9.551338196
22.21666718,29.43333244,243.3166656,4000.646485932641,4.722978592,2.007026434,8.938213348
23.36666679,32.71666718,243.0166626,4000.656485948853,1.571132898,2.145937681,10.33690453
25.86666679,24.08333397,245.3000031,4000.6664859650655,1.815424919,-1.02985847,8.28676796
31.36666679,12.36666679,247.1333313,4000.676485981278,1.221459985,-7.443720818,9.632768631
32.08333206,1.833333373,247.5500031,4000.68648599749,0.6083349586,-0.04311035201,6.888076305
28.64999962,2.599999905,250.0833282,4000.6964860137023,6.399492264,0.02874023467,8.435258865
30.78333282,2.450000048,247.9666595,4000.7064860299147,1.868115306,-1.652563572,7.113208294
29.39999962,3.666666746,242.7833405,4000.7164860461266,3.228486538,-5.73367691,13.85279369
23.23333359,5.650000095,235.6666718,4000.726486062339,1.547182679,-3.458408356,13.18218803
19.95000076,1.683333278,237.9499969,4000.736486078551,6.054609776,-1.690883875,17.13875961
20.08333397,-0.5333333611,241.3500061,4000.7464860947634,6.945557117,2.236948252,8.756192207
24.79999924,0.3000000119,241.9333344,4000.756486110976,2.428550005,-4.081113338,4.622387886
25.98333359,1.666666627,249.6833344,4000.766486127188,0.3832031488,-3.611689568,8.962163925
29.88333321,2.066666603,251.25,4000.7764861434002,1.207089901,-1.676513791,10.96918964
23.96666718,5.150000095,250.5,4000.786486159612,4.603227615,1.437011838,13.93422413
8.149999619,6.733333111,245.2333374,4000.7964861758246,2.46208024,-0.6897656322,17.28246117
1.049999952,9.466666222,241.0166626,4000.806486192037,-0.1245410219,-4.124223709,10.81590843
-2.049999952,11.94999981,236.9666595,4000.816486208249,1.384321332,-3.012934685,12.3439312
-5.099999905,13.66666698,237.9166718,4000.8264862244614,5.24030304,2.68721199,14.97366238
-5.433333397,4.949999809,244.3666687,4000.8364862406734,4.172124386,3.094365358,14.01565456
-5.300000191,-1.916666627,247.3666687,4000.846486256886,-0.5077441335,-0.7089257836,8.962163925
-6.116666794,-4.716666698,248.9333344,4000.856486273098,4.09548378,-5.110971928,14.65752029
-5.800000191,-5.849999905,246.7166595,4000.86648628931,2.500400543,-1.173559666,15.21795464
-8.566666603,-8.966666222,249.5,4000.8764863055226,3.24764657,3.075205326,16.62143707
-10.30000019,-12.36666679,246.7333374,4000.8864863217345,2.629731655,-2.624941587,18.23089027
-9.300000191,-15.08333302,248.1166687,4000.896486337947,-2.596201181,-3.501518726,19.46612167
-7.599999905,-17.93333244,246.0500031,4000.9064863541594,1.020278335,-3.592529535,19.46612167
-9.866666794,-19.91666603,245.5,4000.9164863703713,4.181704044,0.8382568955,19.46612167
-14.63333321,-23.14999962,247.8666687,4000.9264863865837,1.178349614,3.257226706,19.46612167
-17.28333282,-21.26666641,249.3500061,4000.9364864027957,-0.7089257836,-2.313588858,19.46612167
-14.88333321,-14.63333321,247.3500061,4000.946486419008,4.416416168,-4.023633003,19.46612167
-9.283333778,-7.349999905,247.75,4000.9564864352205,1.719624043,-1.944755912,19.46612167
-12.14999962,-6.516666889,254.8000031,4000.9664864514325,4.296665192,1.264570355,19.46612167
-14.88333321,-5.433333397,265.9333191,4000.976486467645,7.223379135,-2.82133317,19.46612167
-11.26666641,1.616666675,271.2999878,4000.9864864838573,1.16397953,-4.761299133,19.46612167
-8.433333397,8.516666412,268.1833191,4000.9964865000693,2.46208024,-3.798501253,19.46612167
-4.566666603,18.36666679,266.6499939,4001.0064865162817,1.805844784,2.648891687,19.46612167
-0.1166666672,24.33333397,263.4333191,4001.0164865324937,2.672842026,-0.5939648747,19.46612167
2.733333349,25.98333359,258.3500061,4001.026486548706,-3.702700377,-2.988984585,19.46612167
4.0,25.39999962,254.9666595,4001.0364865649185,1.063388705,-4.914580345,19.46612167
2.366666555,19.98333359,249.5,4001.0464865811305,-1.939965844,0.546064496,19.46612167
-1.766666651,15.28333378,251.8666687,4001.056486597343,2.399809599,1.848955154,19.46612167
-8.216666222,17.88333321,249.6333313,4001.066486613555,1.65735364,-1.053808689,19.46612167
-16.75,23.89999962,250.3000031,4001.0764866297673,-4.507426739,-3.635639906,19.46612167
-24.41666603,32.51666641,249.8166656,4001.0864866459797,2.984194517,-3.678750038,19.46612167
-21.25,41.61666489,255.5333405,4001.0964866621916,3.688330173,1.825004935,19.46612167
-14.85000038,43.23333359,260.0166626,4001.106486678404,4.976850986,2.869233608,19.23679733
-9.600000381,45.20000076,262.1166687,4001.116486694616,3.91825223,-1.906435609,19.46612167
-7.433333397,47.36666489,262.2000122,4001.1264867108284,-1.88248539,-3.721860409,19.46612167
-12.60000038,57.34999847,267.7999878,4001.136486727041,4.785249233,0.4215234518,16.52084541
-18.33333397,71.0,275.4500122,4001.146486743253,-1.063388705,2.548300982,19.46612167
-20.96666718,77.76667023,272.9166565,4001.156486759465,2.715952158,-2.543510914,17.90995598
-32.71666718,75.80000305,271.6499939,4001.166486775677,-6.212680817,-4.339775562,19.46612167
-25.76666641,75.03333282,274.3166809,4001.1764867918896,-2.945874214,-1.863325238,17.31599236
-10.26666641,82.25,273.3333435,4001.186486808102,1.609453201,3.501518726,13.92943382
3.666666746,80.8833313,272.6666565,4001.196486824314,2.572251081,-0.6945556998,15.68258858
9.883333206,80.98332977,271.5166626,4001.2064868405264,-1.825004935,-3.190166235,16.03226089
9.966666222,81.1333313,270.0833435,4001.216486856739,1.585502982,-6.49529314,7.544312
8.399999619,81.56666565,272.8500061,4001.2264868729508,2.265688658,0.76161623,11.97509861
5.733333111,81.56666565,275.8833313,4001.236486889163,4.023633003,1.43222177,13.97733498
1.166666627,75.1333313,272.4500122,4001.246486905375,5.30736351,-2.529140711,9.07233429
-2.883333445,75.16666412,275.0333252,4001.2564869215876,2.711162329,-4.660708427,9.484277725
-6.183333397,78.01667023,279.0833435,4001.2664869378,2.557880878,0.2347119302,2.984194517
-9.783333778,75.25,281.9166565,4001.276486954012,3.673960209,2.126777411,5.249883175
-9.716666222,61.90000153,279.25,4001.2864869702244,3.02251482,-0.6562353969,10.74884796
-8.050000191,57.01666641,284.2999878,4001.2964869864363,-2.102827311,-0.9005273581,8.224497795
-4.566666603,55.23333359,276.3666687,4001.3064870026487,-0.934057653,-4.756508827,11.33323288
-7.166666508,57.48333359,270.2333374,4001.316487018861,1.916015744,2.677631855,5.465435028
-14.96666622,65.78333282,271.6333313,4001.326487035073,0.004790039267,3.276386976,6.030659676
-18.75,69.96666718,271.6000061,4001.3364870512855,-0.9244775772,-1.082548857,7.893984795
-19.85000038,70.65000153,270.2833252,4001.3464870674975,-2.720742226,-1.173559666,10.43749523
-22.11666679,66.96666718,268.4166565,4001.35648708371,0.1868115366,-0.8047266006,5.762417316
-21.60000038,66.84999847,266.8999939,4001.3664870999223,0.1628613323,4.133803844,2.969824314
-17.36666679,64.43333435,262.2833252,4001.3764871161343,2.998564482,0.1628613323,5.800737381
-13.89999962,62.75,263.4166565,4001.3864871323467,-2.596201181,-2.783012867,5.853427887
-14.35000038,62.45000076,268.0,4001.3964871485587,4.071533203,-5.273833275,12.53074265
-13.26666641,62.63333511,270.3500061,4001.406487164771,2.725532293,1.911225677,10.48060608
-14.64999962,61.45000076,268.4666748,4001.4164871809835,4.172124386,3.333867311,8.008945465
-16.54999924,62.06666565,267.5166626,4001.4264871971955,1.753154397,-2.605781317,4.622387886
-20.43333244,60.56666565,263.0,4001.436487213408,-0.5556445718,-3.611689568,9.259145737
-16.08333397,57.03333282,263.5666809,4001.44648722962,2.05971694,1.192719817,10.06387234
-13.89999962,57.93333435,272.7833252,4001.4564872458322,3.602109432,1.853745222,14.82996178
-13.25,57.58333206,273.7999878,4001.4664872620447,3.736230612,0.7903564572,6.993457317
-14.16666698,55.95000076,275.3166809,4001.4764872782566,0.7280859947,-4.378096104,8.143066406
-13.64999962,53.15000153,275.5333252,4001.486487294469,4.54574728,-3.9853127,4.837939739
-14.30000019,56.28333282,274.0333252,4001.4964873106815,1.441801786,2.816543102,3.271596909
-15.71666622,53.96666718,270.7833252,4001.5064873268934,4.23439455,0.5604345798,3.530258894
-16.39999962,57.09999847,268.3666687,4001.516487343106,-2.28484869,-0.1437011808,4.21044445
-15.0,57.01666641,267.9333191,4001.526487359318,-0.7759863734,-5.542075634,3.558999062
-22.14999962,59.43333435,266.5,4001.53648737553,0.4167334139,1.499282241,1.786684632
-26.46666718,59.95000076,271.5666809,4001.5464873917426,-0.2969824374,2.830913305,3.602109432
-25.98333359,50.38333511,272.1666565,4001.5564874079546,1.638193488,0.9819580317,0.2251318395
-33.54999924,43.70000076,268.6666565,4001.566487424167,-2.941084146,-3.755390882,9.374106407
-41.61666489,37.78333282,263.8166809,4001.576487440379,2.323168993,0.6562353969,9.49864769
-53.16666794,36.41666794,268.25,4001.5864874565914,-0.3879931867,3.515888929,5.403164387
-58.03333282,32.23333359,264.3166809,4001.596487472804,4.052373409,2.778222799,5.221142769
-54.98333359,29.70000076,260.6833191,4001.6064874890158,2.519560575,-0.8286768198,15.19879436
-47.23333359,27.01666641,260.5333252,4001.616487505228,0.1437011808,-4.243974686,14.46112823
-43.54999924,26.48333359,258.4333191,4001.62648752144,5.206772804,3.376977682,13.1534481
-43.68333435,25.25,261.5,4001.6364875376526,3.5829494,2.433339834,13.87674332
-47.84999847,28.03333282,263.3166809,4001.646487553865,3.324287176,-2.136357546,10.07345295
-50.93333435,30.21666718,264.2666626,4001.656487570077,-0.8382568955,-3.6068995,18.28358078
-49.04999924,33.71666718,259.8166809,4001.6664875862893,-0.4215234518,-3.812871218,12.88041592
-52.81666565,42.51666641,257.0166626,4001.6764876025013,3.262016773,2.596201181,11.03146076
-57.81666565,49.68333435,253.3999939,4001.6864876187137,2.332749128,0.3592529595,10.57640648
-62.08333206,51.78333282,251.9666595,4001.696487634926,-0.2011816502,-1.393901467,9.76210022
-58.51666641,49.95000076,251.7666626,4001.706487651138,-4.756508827,-4.464316368,12.0182085
-56.34999847,50.68333435,252.0,4001.7164876673505,1.393901467,3.707490444,6.777905464
-59.68333435,54.34999847,254.6333313,4001.726487683563,0.9963281751,2.246528387,4.354145527
-61.86666489,60.15000153,252.0666656,4001.736487699775,4.334985733,-1.240620136,3.501518726
-61.83333206,58.56666565,250.1833344,4001.7464877159873,-1.341210961,-2.189048052,1.604663134
-65.43333435,47.93333435,248.3166656,4001.7564877321993,3.147055864,-0.02874023467,-3.012934685
-64.31666565,41.88333511,254.6499939,4001.7664877484117,2.002236366,4.991220951,2.600991249
-62.43333435,43.51666641,256.6499939,4001.776487764624,6.260581493,1.288520575,3.391347885
-64.66666412,40.45000076,261.1833191,4001.786487780836,-0.7520361543,-1.906435609,3.683540106
-62.13333511,37.95000076,260.7333374,4001.7964877970485,0.4454736412,-3.463198423,3.932622194
-59.63333511,40.03333282,263.0333252,4001.8064878132604,1.398691416,3.535048962,3.506308794
-56.90000153,40.36666489,261.9500122,4001.816487829473,1.767524481,3.065625191,12.22897053
-57.28333282,40.18333435,260.4166565,4001.8264878456853,-0.2442920059,-0.4023633003,7.798183918
-60.20000076,39.76666641,259.0666809,4001.8364878618972,-1.350791097,-2.074086905,6.504873276
-63.59999847,32.61666489,254.9833374,4001.8464878781097,-1.245410204,0.7759863734,5.484594822
-60.15000153,30.31666756,252.7833405,4001.8564878943216,-0.7903564572,3.02251482,9.905800819
-59.59999847,30.35000038,250.1333313,4001.866487910534,4.224814415,0.03353027627,10.71531773
-61.34999847,30.10000038,251.0,4001.8764879267464,-5.944438934,-3.750600815,7.597002506
-59.90000153,27.83333397,248.8666687,4001.8864879429584,1.312470794,-2.385439634,9.78126049
-61.09999847,24.26666641,247.9333344,4001.896487959171,3.764970779,1.65735364,8.895102501
-60.56666565,6.349999905,245.0166626,4001.906487975383,1.719624043,4.066743374,10.6865778
-55.41666794,-4.966666698,242.3500061,4001.916487991595,0.7089257836,-1.307680726,7.410190582
-56.61666489,-8.333333015,241.9666595,4001.9264880078076,-2.878813505,-3.544629097,10.75363827
-56.5,-8.316666603,241.7833405,4001.9364880240196,2.193837881,0.3640429974,12.0661087
-56.98333359,-7.199999809,240.6999969,4001.946488040232,0.7855664492,2.500400543,12.70797443
-62.25,-6.183333397,241.4833374,4001.956488056444,1.662143588,0.9627978802,11.42424393
-63.06666565,-4.333333492,249.9499969,4001.9664880726564,-3.515888929,-1.911225677,16.52563477
-51.51666641,-1.899999976,251.4666595,4001.976488088869,-0.05269043148,-3.520678759,19.26553726
-45.79999924,-1.366666675,251.4833374,4001.9864881050808,3.812871218,3.664380074,18.22609901
-45.09999847,-0.2833333313,250.6333313,4001.996488121293,0.05269043148,2.826123238,19.46612167
-46.16666794,2.416666746,253.1499939,4002.0064881375056,-0.6274951696,-3.38176775,16.16638184
-44.91666794,7.0,253.8333282,4002.0164881537175,-1.025068402,-6.888076305,19.46612167
-43.40000153,10.88333321,251.6166687,4002.02648816993,0.6083349586,-0.7807763815,19.24637794
-43.46666718,10.64999962,252.5500031,4002.036488186142,2.351909399,2.562670946,18.47518158
-44.66666794,6.949999809,251.7666626,4002.0464882023543,2.193837881,1.020278335,19.46612167
-44.88333511,5.566666603,250.9166718,4002.0564882185668,-2.974614382,-1.250200272,19.46612167
-44.15000153,4.933333397,248.7666626,4002.0664882347787,-1.336421013,-3.137475729,18.5470314
-44.65000153,6.849999905,249.25,4002.076488250991,3.2045362,3.003354549,16.33882332
-43.45000076,8.216666222,249.6000061,4002.086488267203,-0.6801855564,2.759062529,19.46612167
-45.84999847,8.350000381,253.5833282,4002.0964882834155,3.171005964,-1.777104616,16.78429794
-47.5,9.283333778,256.3500061,4002.106488299628,-1.647773504,-3.932622194,19.38049889
-46.43333435,9.5,252.0500031,4002.11648831584,0.4550537169,-1.245410204,13.03369713
-43.75,10.55000019,249.75,4002.1264883320523,3.788921118,4.56969738,14.23599625
-43.54999924,8.466666222,247.9833374,4002.1364883482643,2.318378925,1.130449295,19.46612167
-52.28333282,7.116666794,250.0666656,4002.1464883644767,-3.525468826,-2.883603573,15.69695854
-56.90000153,7.716666698,249.9499969,4002.156488380689,-0.718505919,-4.004472733,12.13316917
-52.59999847,9.583333015,251.0500031,4002.166488396901,1.293310642,1.647773504,13.86237335
-38.95000076,8.366666794,250.6000061,4002.1764884131135,0.4598437548,2.41896987,10.29858398
-33.78333282,7.150000095,246.4499969,4002.1864884293254,3.161425829,-1.911225677,16.43462563
-28.04999924,6.050000191,250.3166656,4002.196488445538,-4.56969738,-3.151845932,16.46815491
-22.46666718,2.516666651,250.5166626,4002.2064884617503,-0.2155517638,-2.203418016,11.5392046
-20.01666641,-2.016666651,254.8000031,4002.2164884779622,2.457290173,2.28484869,12.97621632
-22.85000038,-7.650000095,257.6333313,4002.2264884941746,1.786684632,-1.178349614,10.70094776
-29.89999962,-4.183333397,251.1000061,4002.2364885103866,-0.09101074934,-2.759062529,14.38448811
-36.84999847,2.533333302,248.1333313,4002.246488526599,-0.7089257836,-5.139712334,15.6107378
-39.68333435,8.800000191,247.1333313,4002.2564885428114,5.221142769,0.8813672066,10.75363827
-38.36666489,14.44999981,248.2833405,4002.2664885590234,0.08622070402,4.531377316,11.35718346
-31.86666679,21.39999962,252.1166687,4002.276488575236,2.744692564,-2.160307646,14.84912205
-31.85000038,20.83333397,254.8333282,4002.2864885914482,-2.553090811,-3.506308794,15.52930737
-32.59999847,23.73333359,254.0666656,4002.29648860766,-0.07664062828,-2.165097713,12.6744442
-31.79999924,29.89999962,255.0666656,4002.3064886238726,4.866679668,3.779340982,11.2134819
-31.21666718,33.31666565,255.3666687,4002.3164886400846,-1.427431703,2.232158184,10.37522507
-33.08333206,32.95000076,257.4333191,4002.326488656297,-0.378413111,0.2155517638,8.593330383
-38.09999847,28.58333397,257.6666565,4002.3364886725094,-1.868115306,-4.004472733,13.70909214
-40.79999924,27.70000076,256.4166565,4002.3464886887214,0.5604345798,3.396137953,11.2086916
-43.15000153,27.88333321,258.1499939,4002.356488704934,-0.9627978802,4.97206068,8.784932137
-43.59999847,26.43333244,255.5833282,4002.3664887211457,3.142265797,-0.6897656322,11.69727612
-41.98333359,25.85000038,253.3666687,4002.376488737358,-2.720742226,-2.538720846,15.14610386
-39.73333359,30.46666718,250.75,4002.3864887535706,0.9915381074,-2.859653473,15.36165619
-37.16666794,25.83333397,250.2166595,4002.3964887697825,7.381450653,2.692002058,12.86125565
-30.54999924,21.41666603,251.6499939,4002.406488785995,1.85853529,2.778222799,9.915381432
-24.26666641,22.20000076,256.0666809,4002.416488802207,3.065625191,-2.668051958,6.945557117
-20.33333397,23.89999962,258.0833435,4002.4264888184193,-1.403481483,-4.267924786,10.79195881
-20.35000038,24.85000038,254.3500061,4002.4364888346317,2.778222799,-3.012934685,13.52228069
-22.0,25.39999962,255.1499939,4002.4464888508437,3.065625191,2.227368355,10.16446304
-24.54999924,25.98333359,256.1333313,4002.456488867056,2.390229702,-1.12086916,11.95593834
-29.06666756,30.29999924,255.7333374,4002.466488883268,-2.241738319,-1.781894565,9.560918808
-31.91666603,34.21666718,254.9166718,4002.4764888994805,-1.025068402,-3.913462162,11.02188015
-33.58333206,34.48333359,255.2166595,4002.486488915693,4.224814415,1.72441411,9.086704254
-34.78333282,30.16666603,254.6333313,4002.496488931905,-0.7807763815,3.597319603,5.187612534
-38.18333435,24.38333321,252.8000031,4002.5064889481173,-0.6131250262,-1.317260742,4.766088963
-40.76666641,22.35000038,252.8166656,4002.5164889643297,-2.509980679,-3.396137953,8.655600548
-39.36666489,22.06666756,250.8333282,4002.5264889805417,2.165097713,-1.159189463,6.40428257
-38.28333282,25.13333321,256.6666565,4002.536488996754,3.554209232,3.798501253,1.235830188
-35.13333511,30.28333282,256.9500122,4002.546489012966,2.198627949,2.500400543,9.915381432
-34.15000153,36.01666641,257.2166748,4002.5564890291785,-1.216669917,-0.7328760028,9.110654831
-34.41666794,37.34999847,255.6999969,4002.566489045391,0.4790039361,-4.325405598,7.434141159
-35.15000153,38.36666489,251.5833282,4002.576489061603,5.470224857,2.490820408,5.61871624
-36.23333359,39.03333282,249.7166595,4002.5864890778153,-0.2107617259,5.082231522,3.80808115
-36.78333282,38.48333359,246.5833282,4002.596489094027,3.80808115,-1.034648538,2.577041149
-35.23333359,38.46666718,247.3000031,4002.6064891102396,-5.254673004,-2.907553911,10.00160217
-34.46666718,37.08333206,245.5833282,4002.616489126452,1.465752006,-1.686093807,7.434141159
-34.18333435,36.73333359,247.2166595,4002.626489142664,3.147055864,4.014052868,4.579277515
-35.63333511,36.20000076,248.7333374,4002.6364891588764,0.2011816502,1.863325238,7.510781765
-36.16666794,31.46666718,248.8166656,4002.6464891750884,-0.2921923995,-1.384321332,3.817661285
-36.84999847,24.64999962,247.75,4002.656489191301,-1.690883875,-5.470224857,12.23375988
-39.95000076,21.78333282,245.8500061,4002.666489207513,2.275268555,1.671723723,2.596201181
-41.66666794,19.58333397,246.0833282,4002.676489223725,1.111289144,3.563789129,6.677314758
-41.84999847,18.36666679,242.7666626,4002.6864892399376,2.337539196,0.1532812566,6.049819469
-43.68333435,20.73333359,241.75,4002.6964892561496,-3.314707279,-2.826123238,5.963598728
-43.28333282,22.91666603,239.3999939,4002.706489272362,2.28484869,-3.587739468,7.137158394
-43.31666565,24.04999924,237.0333405,4002.7164892885744,4.411626339,1.92559576,0.3544628918
-41.76666641,24.48333359,237.6666718,4002.7264893047864,3.760180712,3.721860409,3.429668188
-40.18333435,25.86666679,238.5,4002.7364893209988,1.825004935,-1.039438486,5.30736351
-36.66666794,26.78333282,238.6666718,4002.7464893372107,-2.850073338,-3.683540106,4.588857651
-34.68333435,27.81666756,234.8833313,4002.756489353423,4.085903645,0.1389111429,9.589658737
-35.84999847,28.13333321,236.9166718,4002.7664893696356,2.715952158,3.252436638,5.158872128
-37.18333435,29.64999962,234.5500031,4002.7764893858475,1.767524481,1.422641635,7.520361423
-36.26666641,29.78333282,238.4499969,4002.78648940206,-2.280058622,-2.212998152,5.66661644
-33.81666565,29.46666718,239.7666626,4002.7964894182724,0.5412744284,-4.655918121,9.738149643
-35.18333435,31.31666756,242.2333374,4002.8064894344843,2.739902496,1.437011838,6.169570446
-39.04999924,33.08333206,242.0,4002.8164894506967,0.6466553211,4.631968021,6.969507217
-39.61666489,33.78333282,236.5833282,4002.8264894669087,2.993774652,-1.077758789,6.303691864
-33.54999924,35.56666565,236.4666595,4002.836489483121,-4.129014015,-3.070415258,7.740703583
-30.11666679,36.16666794,234.5833282,4002.8464894993335,2.615361452,-1.92559576,9.757309914
-31.45000076,36.36666489,237.7666626,4002.8564895155455,4.727768898,2.466870308,5.719306946
-28.48333359,35.83333206,238.1833344,4002.866489531758,1.767524481,2.141147614,4.445156574
-27.71666718,36.15000153,235.7666626,4002.87648954797,-0.2826123238,-1.034648538,1.278940439
-27.61666679,33.88333511,232.1499939,4002.8864895641823,-0.06227051094,-4.411626339,8.061635971
-31.20000076,35.70000076,229.1166687,4002.8964895803947,4.756508827,-0.09101074934,3.453618288
-35.54999924,41.23333359,227.4833374,4002.9064895966067,2.874023676,4.809199333,3.319497108
-40.90000153,44.59999847,227.8833313,4002.916489612819,0.7951465249,0.9292676449,3.233276606
-42.63333511,44.46666718,233.4333344,4002.926489629031,-2.941084146,-0.8238867521,0.546064496
-40.65000153,45.26666641,239.5666656,4002.9364896452435,2.739902496,-3.832031488,-0.7568262219
-34.23333359,41.08333206,242.2666626,4002.946489661456,1.777104616,2.050136805,6.49529314
-28.39999962,41.11666489,240.4166718,4002.956489677668,2.68721199,4.526587009,6.083349705
-26.53333282,41.71666718,235.7666626,4002.9664896938802,2.141147614,-1.748364329,0.5939648747
-27.5,39.61666489,237.0666656,4002.976489710092,-1.226250052,-3.678750038,9.417217255
-26.53333282,43.25,236.6166687,4002.9864897263046,3.036884785,-0.2347119302,5.063071728
-31.03333282,44.31666565,237.8333282,4002.996489742517,5.939648628,3.726650476,6.207890987
-34.15000153,44.20000076,237.75,4003.006489758729,0.9484277964,1.470542073,6.983877182
-36.38333511,47.13333511,239.0333405,4003.0164897749414,-2.64410162,-0.89573735,5.407954216
-42.01666641,53.18333435,238.6999969,4003.0264897911534,1.360371113,-5.819897652,6.825806141
-43.53333282,55.29999924,237.4666595,4003.036489807366,3.71707058,1.02985847,4.708608627
-45.06666565,55.66666794,237.3999939,4003.046489823578,5.264253139,3.003354549,8.368198395
-43.78333282,59.78333282,237.5333405,4003.05648983979,0.2826123238,0.3353027403,4.325405598
-45.70000076,67.6333313,238.6833344,4003.0664898560026,-0.2251318395,-2.447710037,3.875141859
-46.41666794,66.94999695,238.6499939,4003.076489872215,1.88248539,-3.515888929,4.660708427
-51.38333511,62.45000076,239.0333405,4003.086489888427,3.305127144,1.939965844,7.649692535
-44.83333206,51.06666565,239.7833405,4003.0964899046394,0.119750984,3.760180712,7.946675301
-44.28333282,42.90000153,237.9499969,4003.1064899208513,0.9723779559,-2.653681755,2.030976534
-47.81666565,37.81666565,238.0,4003.1164899370638,0.5029541254,-2.883603573,2.280058622
-49.33333206,37.03333282,239.6999969,4003.126489953276,2.404599667,0.3832031488,1.52323246
-50.26666641,39.81666565,242.5166626,4003.136489969488,3.879931688,5.886958122,6.140830517
-58.36666489,38.58333206,241.4833374,4003.1464899857006,-0.3640429974,1.293310642,8.904683113
-65.44999695,41.28333282,243.5500031,4003.1564900019125,0.3688330352,-0.3448828161,11.5918951
-64.33333588,45.08333206,243.4499969,4003.166490018125,0.2299218774,-3.491938591,12.02778816
-63.98333359,45.78333282,243.0500031,4003.1764900343373,3.875141859,1.762734413,9.321416855
-66.6166687,46.84999847,246.2333374,4003.1864900505493,-1.312470794,6.586304188,14.35574722
-71.33333588,45.03333282,247.5833282,4003.1964900667617,2.945874214,-1.197509766,14.758111
-74.26667023,46.75,250.6999969,4003.2064900829737,-0.89573735,-2.375859499,16.7459774
-79.31666565,47.90000153,253.8666687,4003.216490099186,-0.2586621344,-3.012934685,14.90181255
-80.26667023,48.16666794,256.1666565,4003.2264901153985,5.64266634,1.700463891,16.88009834
-79.25,48.88333511,258.4333191,4003.2364901316105,0.1484912187,2.054926872,15.80233955
-81.81666565,52.04999924,259.0,4003.246490147823,0.2251318395,-2.720742226,12.03736877
-79.28333282,51.79999924,260.1333313,4003.256490164035,-4.277504921,-4.483476639,19.46612167
-76.51667023,54.46666718,258.7166748,4003.2664901802473,1.959126115,1.269360423,7.999365807
-72.01667023,56.88333511,260.7999878,4003.2764901964597,2.926713943,4.176914215,19.46612167
-70.81666565,57.78333282,261.7166748,4003.2864902126717,-0.2586621344,-1.513652444,13.76657295
-70.01667023,61.06666565,266.9666748,4003.296490228884,-2.136357546,-1.829795003,10.97877026
-68.01667023,61.93333435,268.25,4003.3064902450965,-2.117197275,-5.839057922,7.620952606
-68.83333588,56.79999924,264.5333252,4003.3164902613084,5.221142769,1.614243269,2.677631855
-71.16666412,52.04999924,265.7999878,4003.326490277521,-2.107617378,4.21044445,6.730005264
-69.3833313,51.88333511,264.8333435,4003.336490293733,0.9867480993,-1.609453201,10.71052742
-63.81666565,53.08333206,265.8166809,4003.3464903099452,-1.346001029,-1.02985847,11.32365322
-60.73333359,52.59999847,262.1833191,4003.3564903261577,-2.82133317,-2.553090811,12.66007423
-58.54999924,47.36666489,260.8833313,4003.3664903423696,3.78413105,3.879931688,14.70063019
-59.03333282,42.0,260.8833313,4003.376490358582,0.6035449505,3.855981588,7.386240482
-59.88333511,39.71666718,260.7166748,4003.386490374794,-2.136357546,-1.207089901,5.930068493
-57.78333282,40.31666565,260.4166565,4003.3964903910064,-1.068178773,-5.254673004,11.87929726
-54.76666641,42.34999847,261.0333252,4003.406490407219,3.137475729,1.278940439,3.673960209
-56.23333359,45.56666565,264.2000122,4003.416490423431,-0.3496728539,3.597319603,16.67891693
-59.21666718,48.26666641,262.9833374,4003.426490439643,0.9148975015,-1.379531264,9.910591125
-61.58333206,49.56666565,263.8166809,4003.436490455855,-5.091811657,-1.245410204,13.77615261
-60.18333435,48.01666641,263.2333374,4003.4464904720676,0.205971688,-2.960244179,15.62510777
-58.98333359,45.70000076,261.4500122,4003.45649048828,0.9053174257,2.744692564,10.18362331
-60.71666718,46.21666718,262.2666626,4003.466490504492,-1.796264768,4.469106674,16.70286751
-60.16666794,49.58333206,261.2666626,4003.4764905207044,-0.4454736412,-1.226250052,6.696475029
-59.26666641,53.26666641,263.5,4003.4864905369163,-0.2969824374,-3.654799938,7.510781765
-53.93333435,51.65000153,264.0,4003.4964905531288,-0.2299218774,-0.5316943526,13.1007576
-48.25,49.06666565,267.75,4003.506490569341,4.675078392,1.738784313,2.682421923
-48.34999847,47.48333359,264.7833252,4003.516490585553,2.160307646,2.615361452,13.63245201
-52.75,49.65000153,261.6499939,4003.5264906017655,-3.218906403,-0.8765771985,11.10331059
-53.63333511,50.13333511,260.2666626,4003.5364906179775,0.6274951696,-3.817661285,7.601792336
-51.46666718,49.61666489,259.9333191,4003.54649063419,3.02251482,0.6179150939,13.43605995
-51.43333435,47.51666641,261.4833374,4003.5564906504023,-1.470542073,5.154082298,10.07345295
-54.0,44.84999847,259.6333313,4003.5664906666143,1.949545979,-0.5604345798,10.7871685
-55.68333435,44.45000076,258.3833313,4003.5764906828267,-2.682421923,-1.863325238,16.94236946
-58.09999847,41.65000153,255.7666626,4003.586490699039,2.145937681,-1.695673943,10.14530277
-61.28333282,40.58333206,256.2666626,4003.596490715251,1.609453201,1.743574262,12.81335545
-60.79999924,41.06666565,256.5,4003.6064907314635,2.998564482,3.832031488,6.988667488
-58.95000076,41.20000076,255.3500061,4003.6164907476755,-2.294428825,-2.610571384,6.567143917
-53.76666641,38.65000153,254.3833313,4003.626490763888,4.655918121,-4.852309704,12.31040096
-47.54999924,35.41666794,249.9833374,4003.6364907801003,0.2155517638,-0.5508545041,10.403965
-42.54999924,33.34999847,252.0833282,4003.6464907963123,3.123105526,4.900210381,13.69472218
-34.48333359,30.51666641,251.5,4003.6564908125247,1.312470794,0.1293310672,16.20949364
-25.93333244,30.86666679,252.75,4003.6664908287366,-1.427431703,-1.140029311,4.378096104
-20.54999924,33.33333206,250.0166626,4003.676490844949,-1.465752006,-5.767207146,13.34504986
-16.81666756,29.71666718,244.3500061,4003.6864908611615,2.553090811,0.1532812566,8.315507889
-13.88333321,26.01666641,244.75,4003.6964908773734,0.4119433761,5.25946331,-2.112407207
-10.73333359,25.11666679,247.3833313,4003.706490893586,1.652563572,-3.285966873,11.35718346
-12.58333302,30.64999962,256.4666748,4003.716490909798,-1.700463891,-2.950664282,12.08526897
-22.70000076,49.91666794,260.5499878,4003.7264909260102,-3.525468826,-2.347119331,6.888076305
-36.83333206,60.51666641,268.4666748,4003.7364909422226,5.451064587,1.901645541,10.26505375
-38.23333359,64.08333588,265.9333191,4003.7464909584346,-0.8047266006,3.099155426,-0.1676513702
-44.38333511,64.80000305,262.3500061,4003.756490974647,1.049018621,-1.23104012,3.252436638
-47.78333282,67.34999847,263.4833374,4003.766490990859,0.1389111429,-2.926713943,9.848320961
-44.46666718,65.01667023,256.6000061,4003.7764910070714,-0.2011816502,-0.2634521723,-1.049018621
-37.84999847,57.21666718,249.8500061,4003.786491023284,4.105063438,5.661826611,9.307045937
-34.43333435,57.78333282,247.1999969,4003.796491039496,0.9101074338,-1.154399514,0.7855664492
-37.38333511,69.96666718,250.3333282,4003.806491055708,0.03353027627,-1.518442392,-2.131567478
-29.16666603,74.76667023,251.8333282,4003.81649107192,-0.5125342011,-5.063071728,8.28676796
-19.73333359,61.90000153,247.7166595,4003.8264910881326,4.967270851,1.949545979,2.28484869
-16.76666641,55.09999847,244.75,4003.836491104345,-2.682421923,5.35526371,7.625742435
-9.350000381,53.06666565,242.1166687,4003.846491120557,0.9819580317,-0.6514453292,5.71451664
-3.483333349,51.45000076,241.5500031,4003.8564911367694,-1.916015744,-3.884721756,8.794511795
-5.583333492,42.88333511,243.3000031,4003.866491152982,-1.532812595,-0.9580078721,6.346802235
-13.28333378,41.98333359,251.8500061,4003.8764911691937,7.774233818,1.307680726,6.873706341
-17.81666756,41.53333282,249.3500061,4003.886491185406,2.011816502,1.556762815,8.717871666
-22.63333321,45.06666565,240.5500031,4003.896491201618,-3.032094955,-3.252436638,14.71979046
-28.29999924,50.18333435,233.1499939,4003.9064912178305,0.9053174257,-6.059399605,14.87307167
-29.78333282,56.70000076,230.1833344,4003.916491234043,4.215234756,1.020278335,4.938530445
-36.63333511,67.15000153,225.0833282,4003.926491250255,-1.001118183,3.467988491,11.19432163
-50.73333359,58.54999924,226.3833313,4003.9364912664673,3.467988491,-2.557880878,8.0903759
-56.23333359,60.16666794,231.2333374,4003.9464912826793,-1.518442392,-1.997446418,6.571933746
-52.48333359,67.51667023,229.7666626,4003.9564912988917,-0.4933740497,-4.11943388,10.66262722
-64.81666565,70.18333435,228.9499969,4003.966491315104,6.993457317,1.413061619,-1.039438486
-71.56666565,67.34999847,231.9666595,4003.976491331316,-1.154399514,2.395019531,6.097720146
-71.26667023,59.43333435,233.6000061,4003.9864913475285,1.753154397,-1.528022528,-2.567461014
-69.30000305,58.76666641,234.3166656,4003.9964913637405,1.662143588,-2.332749128,6.02107954
-68.73332977,55.03333282,232.6499939,4004.006491379953,-0.4406836033,1.666933656,9.742939949
-62.54999924,53.04999924,234.2166595,4004.0164913961653,5.930068493,3.429668188,0.0239501968
-60.65000153,48.56666565,234.1499939,4004.0264914123773,-1.43222177,1.877695441,2.768642664
-58.58333206,47.28333282,231.8999939,4004.0364914285897,0.2442920059,-1.489702225,9.747730255
-56.63333511,45.93333435,232.25,4004.0464914448016,-1.939965844,-2.533930779,8.66518116
-55.40000153,44.16666794,235.0333405,4004.056491461014,5.25946331,0.7903564572,12.8708353
-56.06666565,32.45000076,233.8666687,4004.0664914772265,-0.9292676449,5.71451664,14.15456581
-43.13333511,34.16666794,232.25,4004.0764914934384,6.040239334,-2.739902496,7.692802906
-31.38333321,33.59999847,231.7833405,4004.086491509651,0.4790039361,-0.6083349586,18.13987923
-36.46666718,24.71666718,231.75,4004.0964915258633,-0.4215234518,-4.631968021,12.76066494
-42.16666794,21.70000076,233.1166687,4004.106491542075,6.270161629,3.099155426,19.46612167
-44.56666565,23.71666718,232.3833313,4004.1164915582876,-0.9819580317,0.7424560785,19.46612167
-44.20000076,24.5,231.0833282,4004.1264915744996,1.99265635,-0.622705102,19.46612167
-42.11666489,34.63333511,228.0500031,4004.136491590712,-3.822451353,-6.552773952,19.46612167
-45.01666641,45.75,223.6499939,4004.1464916069244,2.553090811,0.9436377287,13.46480083
-48.08333206,55.51666641,229.3000031,4004.1564916231364,0.7903564572,3.314707279,15.14131451
-52.21666718,56.26666641,234.3666687,4004.166491639349,3.731440544,-0.4406836033,19.46612167
-52.96666718,51.84999847,236.2166595,4004.1764916555608,-3.060835123,-3.587739468,13.81926346
-50.90000153,42.76666641,236.3833313,4004.186491671773,0.9819580317,-5.091811657,16.96152878
-47.08333206,38.51666641,234.1166687,4004.1964916879856,6.164780617,0.9963281751,10.46144581
-49.5,31.68333244,235.25,4004.2064917041976,-1.705253959,2.078876972,11.2613821
-60.11666489,26.26666641,235.0166626,4004.21649172041,1.16397953,-0.6322851777,18.18298912
-64.73332977,22.10000038,235.5666656,4004.226491736622,-5.249883175,-3.300337076,16.9279995
-60.29999924,20.29999924,231.4166718,4004.2364917528344,2.965034246,-1.307680726,13.81447315
-59.90000153,17.03333282,235.5833282,4004.2464917690468,0.2490820438,2.577041149,10.43270588
-59.93333435,12.08333302,237.7666626,4004.2564917852587,-0.9627978802,2.375859499,14.53297901
-60.98333359,9.566666603,241.9333344,4004.266491801471,-5.010381222,-1.058598638,17.58902359
-63.21666718,9.25,242.0,4004.276491817683,0.718505919,-4.790039062,19.46612167
-64.51667023,7.833333492,240.8666687,4004.2864918338955,0.9627978802,2.634521484,15.47661686
-61.71666718,8.466666222,240.6000061,4004.296491850108,2.624941587,3.726650476,18.37938118
-58.91666794,8.783333778,240.6000061,4004.30649186632,5.934858799,0.6993457079,16.39630508
-57.16666794,12.44999981,243.1499939,4004.3164918825323,-2.452500105,-2.965034246,19.46612167
-55.65000153,16.96666718,243.5,4004.3264918987443,4.890630245,-3.42487812,19.46612167
-55.06666565,20.56666756,243.3333282,4004.3364919149567,3.894301891,0.1532812566,16.72681618
-54.38333511,24.79999924,245.8999939,4004.346491931169,1.211879969,5.043911457,16.36756325
-57.81666565,27.33333397,245.0,4004.356491947381,2.82133317,-0.8765771985,14.88744164
-62.75,29.63333321,245.4499969,4004.3664919635935,-0.1245410219,-2.361489296,19.46612167
-64.71666718,32.01666641,246.0166626,4004.376491979806,-3.209326267,-1.254990339,18.29795074
-67.3833313,33.61666489,246.5833282,4004.386491996018,1.997446418,2.739902496,17.23935127
-69.08333588,34.48333359,244.3500061,4004.3964920122303,-1.748364329,1.235830188,15.70653915
-75.30000305,37.0,245.6666718,4004.4064920284422,-3.697910309,-2.715952158,18.78653336
-76.93333435,37.0,248.6499939,4004.4164920446547,-2.902763844,-4.981640816,18.27878952
-72.8666687,34.83333206,248.3833313,4004.426492060867,1.288520575,0.3640429974,10.56203651
-61.95000076,33.23333359,250.1499939,4004.436492077079,1.264570355,5.403164387,14.95450306
-55.93333435,36.01666641,247.2166595,4004.4464920932915,0.450263679,0.1437011808,13.75699234
-54.88333511,36.98333359,247.8166656,4004.4564921095034,-2.030976534,-3.070415258,13.79052258
-53.51666641,33.63333511,247.4499969,4004.466492125716,0.1245410219,-2.917133808,13.6228714
-55.31666565,30.14999962,248.9166718,4004.4764921419282,5.187612534,1.072968841,10.58119678
-59.28333282,28.83333397,251.2666626,4004.48649215814,1.872905374,3.161425829,9.766890526
-63.08333206,28.70000076,252.1333313,4004.4964921743526,2.270478725,-2.62015152,12.47805214
-65.69999695,29.81666756,253.9499969,4004.5064921905646,-5.091811657,-0.3736230731,14.52339935
-62.86666489,31.11666679,254.7166595,4004.516492206777,2.960244179,-2.011816502,13.27798843
-60.11666489,32.88333511,256.4500122,4004.5264922229894,4.507426739,1.528022528,12.91394615
-57.68333435,33.15000153,255.1666718,4004.5364922392014,-3.923042059,1.312470794,11.4434042
-57.56666565,31.81666756,254.3500061,4004.546492255414,-4.291875362,-1.604663134,14.77248096
-57.43333435,30.01666641,254.6166687,4004.5564922716258,-2.82133317,-4.493056774,16.56874657
-60.15000153,27.81666756,253.2666626,4004.566492287838,4.679868221,1.144819379,8.152647018
-63.25,28.10000038,253.0833282,4004.5764923040506,-1.001118183,6.159990311,15.94604111
-70.66666412,28.31666756,253.6000061,4004.5864923202626,1.532812595,-1.360371113,10.16925335
-73.75,31.51666641,259.5833435,4004.596492336475,-3.218906403,-1.226250052,10.96918964
-74.78333282,33.81666565,262.1666565,4004.606492352687,3.108735561,-3.070415258,13.93901443
-72.44999695,35.45000076,262.7666626,4004.6164923688993,4.809199333,1.465752006,12.77982521
-70.8833313,35.79999924,262.75,4004.6264923851118,2.375859499,4.550537109,15.66821861
-68.8666687,36.51666641,259.1000061,4004.6364924013237,2.519560575,0.2107617259,12.98100662
-64.5,37.23333359,259.3999939,4004.646492417536,-2.907553911,-1.872905374,13.27319908
-63.79999924,32.40000153,258.1499939,4004.6564924337486,3.616479635,-1.341210961,7.137158394
-62.26666641,29.16666603,256.5333252,4004.6664924499605,3.032094955,2.155517578,11.98946857
-60.45000076,28.70000076,255.6499939,4004.676492466173,-0.4263134897,2.917133808,6.370752335
-61.73333359,28.33333397,256.6000061,4004.686492482385,-4.009263039,-2.41896987,7.046147823
-67.19999695,27.79999924,256.5,4004.6964924985973,-0.3688330352,-3.056045055,5.24030304
-72.3666687,31.56666756,252.0166626,4004.7064925148097,-2.897973776,-0.4837939739,8.061635971
-73.48332977,36.91666794,253.9166718,4004.7164925310217,1.911225677,2.979404449,11.34760284
-69.96666718,40.43333435,257.7000122,4004.726492547234,2.08366704,0.7711963058,14.98803329
-67.81666565,38.61666489,259.9833374,4004.736492563446,-3.865561724,-1.183139682,8.751401901
-68.80000305,32.18333435,252.1999969,4004.7464925796585,-0.1772314459,-4.651128292,8.080796242
-76.56666565,28.91666603,247.5333405,4004.756492595871,3.951782465,2.021396637,3.429668188
-80.19999695,31.03333282,245.4666595,4004.766492612083,1.959126115,5.326523781,3.549419165
-88.94999695,39.0,246.2166595,4004.7764926282953,0.9963281751,-2.112407207,5.173242569
-90.8833313,52.25,252.1000061,4004.7864926445072,-0.1245410219,-0.119750984,7.060517788
-94.09999847,55.61666489,253.9333344,4004.7964926607197,-2.759062529,-1.551972747,7.108418465
-96.08333588,56.63333511,256.8999939,4004.806492676932,6.509663582,3.228486538,3.338657379
-92.44999695,56.83333206,263.0666809,4004.816492693144,-2.050136805,4.718188763,1.839375019
-89.19999695,56.13333511,263.9166565,4004.8264927093564,0.8382568955,0.2251318395,-0.8095166087
-86.56666565,53.70000076,268.0499878,4004.8364927255684,-3.879931688,-3.151845932,6.059399605
-83.56666565,51.68333435,265.1666565,4004.846492741781,4.315825462,0.1676513702,5.748047352
-89.44999695,50.81666565,264.8333435,4004.8564927579932,5.484594822,3.932622194,4.818779469
-96.6333313,47.81666565,265.6833191,4004.866492774205,-1.154399514,0.8047266006,3.568579197
-94.1166687,36.03333282,265.6833191,4004.8764927904176,-1.767524481,0.03832031414,0.4119433761
-86.75,26.83333397,264.7999878,4004.88649280663,-2.193837881,-6.145620346,0.6131250262
-82.3666687,21.89999962,266.9500122,4004.896492822842,4.047583103,2.926713943,-0.2251318395
-83.90000153,20.5,267.8833313,4004.9064928390544,0.172441408,4.224814415,5.896538258
-79.75,22.04999924,268.9166565,4004.9164928552664,1.63340342,-1.686093807,9.968071938
-74.93333435,23.23333359,270.3500061,4004.926492871479,-3.578159332,-1.293310642,13.6228714
-72.56666565,28.56666756,269.4166565,4004.936492887691,-0.76161623,-3.041674852,13.50312042
-69.94999695,38.73333359,275.1499939,4004.946492903903,5.249883175,2.428550005,9.330996513
-75.30000305,45.98333359,281.0666809,4004.9564929201156,2.356699228,2.936294079,6.217471123
-87.21666718,49.61666489,278.8666687,4004.9664929363275,-1.767524481,0.04790039361,-0.3640429974
-95.59999847,58.03333282,279.0333252,4004.97649295254,-2.505190611,-3.558999062,5.958808899
-99.33333588,65.1166687,279.0666809,4004.9864929687524,3.1805861,-0.9580078721,7.223379135
-100.0833359,68.81666565,281.1166687,4004.9964929849643,3.946992397,3.372187614,2.577041149
-100.6333313,72.03333282,282.2999878,4005.0064930011768,0.8286768198,4.976850986,1.221459985
-105.8000031,76.44999695,283.2000122,4005.0164930173887,-1.642983437,-0.3209326267,1.700463891
-106.8166656,71.23332977,286.5833435,4005.026493033601,-0.1484912187,-1.604663134,7.683222771
-94.84999847,61.29999924,289.8500061,4005.0364930498135,0.1676513702,2.117197275,-3.276386976
-85.91666412,64.01667023,287.3833313,4005.0464930660255,2.136357546,4.109853745,-5.326523781
-82.55000305,69.34999847,282.75,4005.056493082238,-2.169887781,-0.1676513702,-5.316943645
-78.81666565,60.90000153,279.5499878,4005.06649309845,-2.198627949,0.934057653,-4.617598057
-74.76667023,55.36666489,276.3166809,4005.0764931146623,-5.115761757,-3.070415258,0.5364844203
-73.56666565,53.13333511,269.3500061,4005.0864931308747,2.706372261,1.997446418,-6.322851658
-75.56666565,44.08333206,267.25,4005.0964931470867,-1.178349614,6.447392941,0.273032248
-68.91666412,31.64999962,267.6333313,4005.106493163299,-0.2490820438,-1.144819379,5.815107822
-64.44999695,28.86666679,269.2166748,4005.116493179511,-3.319497108,-3.367397547,3.923042059
-61.66666794,23.04999924,267.1166687,4005.1264931957235,0.3640429974,-0.9053174257,13.93422413
-60.70000076,20.26666641,264.7999878,4005.136493211936,3.295547009,-0.04790039361,5.834267616
-61.46666718,17.58333397,259.8666687,4005.146493228148,-1.815424919,3.444038153,11.29970264
-65.68333435,11.14999962,257.3666687,4005.1564932443603,-1.700463891,-1.796264768,10.15488338
-68.83333588,10.28333378,254.1666718,4005.1664932605727,-0.1532812566,-4.914580345,15.50535679
-68.94999695,8.449999809,251.1166687,4005.1764932767846,2.002236366,-1.494492292,14.50902939
-64.25,5.533333302,250.0166626,4005.186493292997,3.376977682,3.592529535,15.38081646
-62.56666565,1.416666627,252.5666656,4005.196493309209,-0.1580712944,-0.01916015707,19.46612167
-64.18333435,-0.3000000119,252.3833313,4005.2064933254214,-5.019961357,-0.06227051094,17.93390656
-59.18333435,1.433333278,250.1166687,4005.216493341634,-3.491938591,-4.052373409,19.46612167
-56.29999924,2.883333445,245.7666626,4005.226493357846,5.087021828,0.799936533,12.94268608
-57.76666641,2.683333397,249.0666656,4005.236493374058,0.3688330352,4.943320751,17.15313148
-61.66666794,5.166666508,250.9666595,4005.24649339027,0.6993457079,-0.718505919,15.15568447
-57.95000076,6.650000095,250.75,4005.2564934064826,-3.041674852,-1.92559576,12.69839382
-50.01666641,5.349999905,254.3166656,4005.266493422695,-0.6035449505,-1.973496199,19.46612167
-45.18333435,5.066666603,257.5166626,4005.276493438907,4.799619198,-0.2586621344,17.5459137
-48.68333435,6.5,259.0666809,4005.2864934551194,-0.7089257836,2.639311552,18.59493256
-47.71666718,10.6833334,258.9333191,4005.2964934713314,1.02985847,-2.299218893,15.34728622
-45.08333206,14.6833334,260.0166626,4005.306493487544,-0.9053174257,-3.40571785,19.46612167
-45.40000153,16.63333321,258.8666687,4005.316493503756,1.566342831,0.2634521723,19.46612167
-48.90000153,24.26666641,257.5333252,4005.326493519968,4.59364748,2.596201181,19.46612167
-52.83333206,28.88333321,253.8166656,4005.3364935361806,0.2538720667,1.451381922,16.42025375
-44.13333511,24.70000076,249.0666656,4005.3464935523925,-3.185376167,-1.106499076,11.37155342
-41.13333511,24.45000076,246.1166687,4005.356493568605,2.830913305,-5.254673004,18.05365753
-41.09999847,20.78333282,247.7333374,4005.3664935848174,0.8717871308,-1.111289144,15.89813995
-41.90000153,21.61666679,249.2833405,4005.3764936010293,1.733994246,3.736230612,14.14498615
-47.03333282,32.16666794,249.2166595,4005.3864936172417,2.495610476,-0.6945556998,17.72314453
-53.20000076,42.91666794,251.6833344,4005.3964936334537,-3.760180712,-1.106499076,15.57720757
-62.28333282,46.66666794,249.1333313,4005.406493649666,-2.050136805,-3.855981588,15.60115814
-62.93333435,45.51666641,247.6000061,4005.4164936658785,4.49784708,0.4023633003,7.376660347
-61.16666794,45.5,248.0500031,4005.4264936820905,0.2011816502,5.738467216,5.791157246
-60.18333435,47.16666794,245.6999969,4005.436493698303,0.622705102,-1.302890658,6.423442841
-58.21666718,45.59999847,245.1999969,4005.4464937145153,0.04311035201,-2.692002058,11.90324783
-55.68333435,46.06666565,244.4666595,4005.4564937307273,-1.781894565,-2.08366704,8.583750725
-54.79999924,50.28333282,246.3500061,4005.4664937469397,7.611372471,1.786684632,7.041357517
-57.40000153,52.53333282,248.0666656,4005.4764937631517,-2.62015152,2.624941587,7.175478935
-60.31666565,46.16666794,243.6499939,4005.486493779364,-0.8717871308,-0.3927832246,2.768642664
-55.29999924,38.01666641,243.6000061,4005.4964937955765,-3.257226706,-3.539839029,12.54511261
-50.01666641,39.45000076,242.3666687,4005.5064938117885,3.22369647,-0.2538720667,8.660390854
-47.88333511,48.88333511,244.3000031,4005.516493828001,4.708608627,3.357817411,6.040239334
-50.18333435,56.96666718,243.7833405,4005.526493844213,0.8238867521,-1.221459985,11.2613821
-50.28333282,55.29999924,245.8000031,4005.5364938604253,-2.193837881,-1.825004935,7.103628159
-49.46666718,52.13333511,245.25,4005.5464938766377,-0.7855664492,-5.403164387,11.1176815
-52.71666718,56.16666794,243.3833313,4005.5564938928496,5.178032398,0.3017724752,7.467671394
-49.38333511,49.68333435,243.8666687,4005.566493909062,-0.7041357756,5.173242569,6.466553211
-43.56666565,43.53333282,243.3833313,4005.576493925274,2.193837881,-1.585502982,8.732241631
-45.23333359,45.75,242.9166718,4005.5864939414864,-0.6610254049,-0.2969824374,11.95593834
-39.71666718,47.41666794,245.3666687,4005.596493957699,-2.950664282,-2.519560575,8.128696442
-40.01666641,48.31666565,249.8333282,4005.606493973911,4.105063438,2.155517578,4.876259804
-42.75,51.53333282,251.2666626,4005.616493990123,-0.2921923995,4.320615292,8.981323242
-44.08333206,62.36666489,250.5500031,4005.626494006335,-1.360371113,-1.427431703,0.4837939739
-42.66666794,66.6166687,254.1166687,4005.6364940225476,2.150727749,-3.2045362,5.724096775
-42.28333282,68.5,256.9333191,4005.64649403876,2.102827311,-0.5077441335,4.14338398
-43.65000153,71.16666412,264.8500061,4005.656494054972,3.91825223,2.610571384,6.677314758
-44.46666718,71.53333282,264.75,4005.6664940711844,0.311352551,3.300337076,5.163662434
-51.04999924,78.65000153,264.6333313,4005.676494087397,-3.702700377,-0.6274951696,3.036884785
-46.45000076,82.93333435,264.2666626,4005.6864941036088,0.4933740497,-2.409389734,5.158872128
-38.56666565,84.5,262.7999878,4005.696494119821,3.640429735,0.1676513702,2.102827311
-34.5,97.16666412,264.3666687,4005.706494136033,0.01437011734,5.144502163,4.90500021
-38.38333511,94.69999695,266.8833313,4005.7164941522456,0.2826123238,-1.642983437,9.944121361
-45.33333206,85.43333435,266.7000122,4005.726494168458,-2.773432732,-1.235830188,-3.434458256
-47.48333359,82.56666565,267.4833374,4005.73649418467,-3.587739468,-6.514453411,1.68130374
-47.51666641,82.75,263.9166565,4005.7464942008824,7.582632065,2.241738319,1.68130374
-43.41666794,85.5,260.25,4005.7564942170943,0.8286768198,4.675078392,6.480923176
-42.70000076,82.93333435,261.9166565,4005.7664942333067,1.398691416,-2.763852596,-0.7137158513
-39.76666641,78.6333313,266.5166626,4005.776494249519,0.2538720667,-1.604663134,8.004155159
-36.93333435,73.33333588,267.1666565,4005.786494265731,-1.087338924,-2.553090811,-0.03353027627
-38.15000153,75.43333435,263.0,4005.7964942819435,5.388793945,2.28484869,2.859653473
-37.09999847,82.78333282,262.0166626,4005.8064942981555,-1.020278335,3.281176805,3.084785223
-39.29999924,74.71666718,262.0666809,4005.816494314368,-1.216669917,-1.595083117,-2.423759937
-36.01666641,65.68333435,267.0333252,4005.8264943305803,-3.194956303,-4.689448357,0.5173242688
-27.83333397,66.25,263.5833435,4005.8364943467923,7.520361423,1.805844784,1.130449295
-24.46666718,77.23332977,263.6833191,4005.8464943630047,3.741020679,5.28341341,0.3353027403
-21.03333282,84.09999847,270.3833313,4005.8564943792167,1.484912157,-1.331630945,9.316626549
-18.71666718,81.94999695,274.9166565,4005.866494395429,-4.397255898,-0.172441408,6.615044117
-19.60000038,72.46666718,276.1666565,4005.8764944116415,-1.944755912,-5.249883175,3.975732565
-21.56666756,68.66666412,274.7999878,4005.8864944278534,6.849756241,1.695673943,-4.871469975
-26.66666603,72.6333313,273.8166809,4005.896494444066,1.7914747,6.394702435,-1.575922966
-29.64999962,84.21666718,270.1833191,4005.906494460278,0.2011816502,-1.556762815,-5.680986404
-22.75,99.30000305,269.6499939,4005.9164944764902,-0.622705102,-1.159189463,8.784932137
-15.51666641,99.43333435,270.4666748,4005.9264944927027,-1.930385828,-3.956572533,3.065625191
-9.183333397,96.51667023,269.1000061,4005.9364945089146,5.403164387,2.783012867,-3.415297985
-5.849999905,94.53333282,268.4166565,4005.946494525127,0.799936533,3.2045362,-6.121670246
-4.699999809,90.8666687,265.3500061,4005.9564945413395,0.239501968,-0.1676513702,-10.52371597
-3.599999905,88.23332977,266.0,4005.9664945575514,-0.7376660705,-2.711162329,0.03832031414
1.366666675,92.1333313,265.7666626,4005.976494573764,5.623506069,0.2155517638,1.283730507
8.116666794,93.31666565,268.5,4005.986494589976,4.909790039,1.087338924,-1.044228554
10.69999981,95.8833313,269.2999878,4005.996494606188,3.697910309,0.3736230731,-3.961362362
12.55000019,99.94999695,274.7833252,4006.0064946224006,-2.672842026,-1.815424919,2.433339834
13.61666679,105.0,280.3500061,4006.0164946386126,-1.781894565,-4.349355698,4.555327415
14.33333302,105.6833344,283.1833191,4006.026494654825,1.839375019,2.050136805,2.212998152
13.46666622,102.3499985,284.2666626,4006.036494671037,-0.8238867521,4.449946404,1.532812595
13.41666698,89.53333282,280.0166626,4006.0464946872494,2.179467916,-1.777104616,1.36516118
9.483333588,82.06666565,276.7333374,4006.056494703462,1.274150491,-3.04646492,0.2203418016
7.583333492,86.90000153,275.5833435,4006.0664947196738,2.893183708,-5.776787281,0.5221142769
8.800000191,89.25,271.8333435,4006.076494735886,6.816226006,-0.1963916123,6.892866611
6.383333206,87.65000153,271.0333252,4006.086494752098,0.5891748071,2.466870308,8.30592823
4.333333492,83.53333282,265.3333435,4006.0964947683105,-0.5316943526,-2.878813505,5.609136105
9.183333397,79.46666718,262.4833374,4006.106494784523,-1.010698318,-3.295547009,3.472778559
16.03333282,77.15000153,255.5666656,4006.116494800735,1.072968841,-0.5795947313,-0.1868115366
24.86666679,73.84999847,254.2666626,4006.1264948169473,6.873706341,1.614243269,-0.06227051094
32.25,75.5,255.75,4006.1364948331593,2.524350643,1.346001029,3.6068995
32.43333435,82.94999695,256.4166565,4006.1464948493717,-1.786684632,-3.214116335,4.229604721
29.28333282,82.6333313,255.5500031,4006.156494865584,0.3448828161,-4.92416048,-0.2011816502
30.41666603,84.78333282,256.2999878,4006.166494881796,4.109853745,-0.9244775772,-1.820214868
31.11666679,84.43333435,254.3666687,4006.1764948980085,2.184257984,4.526587009,2.423759937
30.93333244,81.94999695,249.9166718,4006.1864949142205,1.609453201,-0.5029541254,3.017724752
27.58333397,84.6333313,246.6833344,4006.196494930433,0.7568262219,-0.5891748071,-0.2442920059
27.79999924,75.68333435,241.4833374,4006.2064949466453,2.447710037,-3.027304888,0.7568262219
32.96666718,65.68333435,237.8833313,4006.2164949628573,7.242539406,1.144819379,0.622705102
34.93333435,64.71666718,239.9666595,4006.2264949790697,1.911225677,2.280058622,5.647456169
39.90000153,59.33333206,238.8999939,4006.236494995282,0.4071533382,-3.927832127,7.95146513
45.70000076,44.66666794,242.9499969,4006.246495011494,-1.063388705,-4.584067345,17.09564972
54.31666565,32.06666565,250.1333313,4006.2564950277065,2.514770508,-3.305127144,9.944121361
59.81666565,22.10000038,257.3999939,4006.2664950439184,7.587422371,0.3544628918,9.661509514
57.63333511,16.93333244,257.75,4006.276495060131,0.1532812566,1.686093807,15.04072285
58.33333206,17.86666679,260.6000061,4006.2864950763433,-2.629731655,-2.428550005,10.18362331
57.36666489,17.06666756,271.5833435,4006.2964950925552,-1.154399514,-7.558681965,13.88153362
51.66666794,14.51666641,278.6499939,4006.3064951087676,3.491938591,-2.706372261,13.17260838
62.56666565,22.45000076,277.8500061,4006.3164951249796,2.720742226,-0.2107617259,17.03816986
80.16666412,34.93333435,272.6000061,4006.326495141192,4.100273609,-1.738784313,18.88233566
75.01667023,36.63333511,268.3833313,4006.3364951574044,-3.429668188,-2.088457108,19.46612167
68.30000305,40.06666565,267.0166626,4006.3464951736164,4.152964115,-6.768325329,19.46612167
67.68333435,41.20000076,264.3333435,4006.356495189829,3.597319603,0.6418652534,19.46612167
62.88333511,34.31666565,262.5333252,4006.366495206041,1.585502982,2.557880878,19.46612167
55.16666794,32.91666794,259.2999878,4006.376495222253,2.256108522,-1.733994246,16.8417778
38.40000153,32.84999847,256.2000122,4006.3864952384656,-0.7568262219,-3.075205326,13.1055479
31.89999962,45.91666794,254.2666626,4006.3964952546776,0.6131250262,-4.809199333,16.61185646
37.5,53.93333435,258.1833191,4006.40649527089,8.133486748,-0.5269043446,14.82038116
39.20000076,55.29999924,268.7000122,4006.416495287102,0.3879931867,3.24764657,16.32445335
34.79999924,53.13333511,271.1833191,4006.4264953033144,0.89573735,-1.437011838,19.46612167
31.63333321,50.09999847,275.7333374,4006.436495319527,-1.178349614,-4.157753944,15.06946373
36.06666565,46.78333282,278.8500061,4006.4464953357387,1.777104616,-2.730322361,7.47725153
39.98333359,42.25,277.7166748,4006.456495351951,4.19128418,-1.939965844,13.54623127
40.84999847,42.04999924,275.0333252,4006.4664953681636,3.252436638,-0.2874023616,9.814790726
35.59999847,41.91666794,273.8666687,4006.4764953843755,-3.650009871,-3.02251482,11.73080635
39.08333206,37.33333206,273.9833374,4006.486495400588,0.4406836033,-8.296347618,12.76545429
41.54999924,36.66666794,273.75,4006.4964954168,1.125659227,-1.149609447,10.3129549
38.13333511,39.58333206,275.4333191,4006.5064954330123,2.126777411,0.1963916123,10.54287624
32.54999924,40.96666718,270.3833313,4006.5164954492247,3.391347885,-1.034648538,8.320298195
30.28333282,42.23333359,267.6000061,4006.5264954654367,-1.437011838,-2.174677849,12.23855019
38.33333206,33.38333511,263.1666565,4006.536495481649,2.236948252,-5.949228764,11.10331059
46.59999847,27.16666603,267.1333313,4006.546495497861,5.872588158,0.1293310672,9.738149643
51.81666565,23.75,271.7666626,4006.5564955140735,3.161425829,1.293310642,9.891430855
49.56666565,17.0,271.1166687,4006.566495530286,3.233276606,-1.202299833,9.053174019
46.45000076,12.85000038,272.9833374,4006.576495546498,-0.06227051094,-3.415297985,13.1007576
47.78333282,13.5666666,273.0833435,4006.5864955627103,0.7376660705,-3.032094955,14.18330669
48.34999847,14.16666698,271.2999878,4006.5964955789223,5.465435028,-0.6610254049,15.76401901
46.59999847,15.03333378,271.1833191,4006.6064955951347,2.030976534,1.714834094,14.97845268
44.76666641,16.73333359,267.6833191,4006.616495611347,-1.690883875,-1.671723723,14.41322803
43.93333435,17.75,268.0166626,4006.626495627559,-0.09580078721,-5.455854893,16.9375782
48.26666641,16.63333321,268.75,4006.6364956437715,0.1389111429,-2.313588858,13.23966885
55.21666718,10.48333359,267.8666687,4006.6464956599834,5.249883175,-1.494492292,17.48364258
56.29999924,1.983333349,267.4500122,4006.656495676196,1.973496199,0.8143066764,18.33148003
57.25,-3.766666651,270.0666809,4006.6664956924083,-5.30736351,-4.99601078,17.55549431
63.56666565,-11.23333359,272.3333435,4006.67649570862,1.106499076,-8.842412949,19.46612167
67.96666718,-20.31666756,274.4666748,4006.6864957248326,0.9244775772,-0.6753955483,19.46612167
71.43333435,-25.54999924,277.1833191,4006.6964957410446,2.596201181,-2.160307646,19.46612167
69.6166687,-26.96666718,275.7999878,4006.706495757257,2.581831217,-0.8047266006,19.46612167
67.83333588,-30.04999924,276.5833435,4006.7164957734694,-0.9436377287,-3.654799938,19.46612167
68.05000305,-33.13333511,274.3833313,4006.7264957896814,3.003354549,-7.022197723,19.46612167
65.18333435,-28.81666756,268.4333191,4006.736495805894,6.897656441,-3.008144617,19.46612167
64.33333588,-24.85000038,267.5666809,4006.746495822106,4.061953068,-0.8047266006,19.46612167
62.56666565,-27.78333282,260.6833191,4006.756495838318,2.835703135,-3.458408356,19.46612167
61.59999847,-35.93333435,254.8833313,4006.7664958545306,1.489702225,-5.201982498,19.46612167
74.30000305,-48.66666794,254.1833344,4006.7764958707426,-0.584384799,-4.315825462,19.46612167
81.51667023,-57.11666489,251.8500061,4006.786495886955,4.703818798,0.08143066615,19.46612167
88.56666565,-54.15000153,250.2333374,4006.7964959031674,3.875141859,-0.5364844203,19.46612167
92.21666718,-51.96666718,246.75,4006.8064959193794,-3.060835123,-2.481240273,19.46612167
94.91666412,-47.5,247.6000061,4006.816495935592,-0.6035449505,-6.557563782,19.46612167
93.30000305,-43.59999847,246.5500031,4006.8264959518037,2.706372261,-3.736230612,19.46612167
91.40000153,-43.29999924,247.8500061,4006.836495968016,6.255791187,-3.477568626,19.46612167
89.15000153,-45.04999924,247.4333344,4006.8464959842286,5.700146675,-2.548300982,19.46612167
84.30000305,-48.04999924,249.2333374,4006.8564960004405,0.4167334139,-4.507426739,19.46612167
81.55000305,-47.91666794,248.3000031,4006.866496016653,2.313588858,-7.491621494,19.46612167
80.06666565,-45.95000076,246.1333313,4006.876496032865,5.33131361,-3.712280512,19.46612167
78.6166687,-42.04999924,244.1999969,4006.8864960490773,5.542075634,-1.532812595,19.46612167
75.46666718,-38.58333206,239.1000061,4006.8964960652897,5.192402363,-0.5748047233,19.46612167
73.81666565,-37.28333282,237.6666718,4006.9064960815017,0.172441408,-7.194639206,19.46612167
77.08333588,-38.38333511,236.6999969,4006.916496097714,3.214116335,-6.926396847,19.46612167
76.3666687,-39.46666718,233.7666626,4006.926496113926,5.657036304,-4.114643574,19.46612167
71.71666718,-40.41666794,234.3666687,4006.9364961301385,3.262016773,-0.01437011734,19.46612167
67.68333435,-38.51666641,234.9666595,4006.946496146351,-1.738784313,-4.325405598,19.46612167
64.44999695,-38.29999924,241.0666656,4006.956496162563,1.369951248,-5.604345798,19.46612167
64.94999695,-38.15000153,245.7666626,4006.9664961787753,-0.5364844203,-5.302573681,19.46612167
68.53333282,-37.41666794,245.1666718,4006.9764961949872,6.294111729,-3.238066435,19.46612167
69.6333313,-39.03333282,243.3333282,4006.9864962111997,4.631968021,0.0239501968,19.46612167
64.84999847,-33.04999924,241.0833282,4006.996496227412,-1.010698318,-4.334985733,19.46612167
62.40000153,-27.85000038,243.8000031,4007.006496243624,3.415297985,-5.906118393,19.46612167
62.16666794,-29.63333321,245.25,4007.0164962598365,1.733994246,-6.811435699,19.46612167
55.23333359,-34.59999847,245.0666656,4007.026496276049,8.497529984,-2.030976534,19.46612167
56.76666641,-39.88333511,248.1999969,4007.036496292261,6.49529314,-0.3640429974,19.46612167
73.18333435,-29.39999962,247.2333374,4007.0464963084733,2.778222799,-2.792593002,19.46612167
88.3833313,-9.483333588,244.9833374,4007.056496324685,3.036884785,-7.089258194,19.46612167
86.71666718,-2.183333397,238.4833374,4007.0664963408976,4.804409504,-3.558999062,19.46612167
91.65000153,1.333333373,237.2166595,4007.07649635711,4.076323509,-1.36516118,19.46612167
97.73332977,0.8666666746,236.9333344,4007.086496373322,6.562353611,-1.920805693,19.46612167
98.78333282,-2.483333349,238.7666626,4007.0964963895344,-1.85853529,-1.762734413,19.46612167
96.75,-5.066666603,240.3000031,4007.1064964057464,2.481240273,-8.818462372,19.46612167
94.59999847,-9.183333397,238.1333313,4007.116496421959,0.9867480993,-1.403481483,19.46612167
91.66666412,-7.599999905,245.4666595,4007.126496438171,0.9867480993,-1.968706131,19.46612167
87.05000305,-0.08333333582,248.2166595,4007.136496454383,-0.2969824374,-1.561552763,19.46612167
96.73332977,10.21666622,254.7666626,4007.1464964705956,-2.538720846,-4.52179718,19.46612167
113.3499985,22.68333244,253.6333313,4007.1564964868076,0.3975732625,-7.314390182,19.46612167
128.8500061,41.08333206,247.2166595,4007.16649650302,2.150727749,0.05748046935,19.46612167
141.75,51.36666489,244.3500061,4007.1764965192324,3.242856503,-0.2778222859,19.46612167
154.7333374,49.40000153,239.0,4007.1864965354443,0.05748046935,-2.074086905,19.46612167
149.6166687,47.76666641,245.25,4007.1964965516568,4.45473671,-4.780459404,19.46612167
136.8999939,43.61666489,253.1666718,4007.2064965678687,1.202299833,-5.73367691,15.29938507
136.6166687,42.38333511,253.0333405,4007.216496584081,7.764653683,-2.596201181,18.27878952
139.1666718,35.04999924,248.0,4007.2264966002936,5.125341892,-0.4358935654,19.46612167
132.7166595,30.41666603,245.6499939,4007.2364966165055,-3.396137953,-3.1805861,19.46612167
124.3166656,20.38333321,243.1999969,4007.246496632718,6.370752335,-4.94811058,16.67412758
124.25,14.75,247.3333282,4007.2564966489304,2.66326189,-1.087338924,19.1553669
123.6666641,10.8166666,248.9499969,4007.2664966651423,5.034331322,-2.246528387,12.73671436
113.5166702,12.5666666,248.8166656,4007.2764966813547,3.913462162,1.106499076,12.91394615
109.0500031,13.30000019,244.2833405,4007.2864966975667,-8.372988701,-3.923042059,15.5628376
102.8000031,15.76666641,239.6666718,4007.296496713779,1.010698318,-7.362290382,11.24701214
94.23332977,24.79999924,243.9166718,4007.3064967299915,1.12086916,-0.9053174257,15.25148487
88.43333435,27.08333397,246.5666656,4007.3164967462035,5.451064587,-1.125659227,14.85870171
80.81666565,24.76666641,245.0,4007.326496762416,2.64410162,3.444038153,10.3560648
78.28333282,22.73333359,241.2833405,4007.336496778628,-1.690883875,-1.829795003,10.66741753
78.05000305,24.76666641,238.6166687,4007.3464967948403,-0.1963916123,-7.074888229,6.715634823
75.73332977,29.68333244,238.0666656,4007.3564968110527,6.595883846,-1.7914747,5.431904316
74.81666565,23.39999962,240.5500031,4007.3664968272647,7.031777859,0.2682422101,6.040239334
69.19999695,24.60000038,239.0666656,4007.376496843477,3.707490444,-2.050136805,3.568579197
60.21666718,24.95000076,231.6166687,4007.386496859689,-0.105380863,-0.7759863734,9.584868431
60.48333359,25.81666756,225.3000031,4007.3964968759014,-0.004790039267,-5.819897652,13.30672932
62.28333282,32.61666489,228.0833282,4007.406496892114,2.955454111,-0.1341211051,15.73048878
57.58333206,43.56666565,236.2666626,4007.416496908326,0.08622070402,2.44291997,17.06212044
43.98333359,55.54999924,239.1166687,4007.4264969245382,2.098037243,-1.7914747,19.46612167
32.56666565,58.59999847,238.8666687,4007.43649694075,-4.56969738,-1.499282241,16.56874657
31.71666718,60.09999847,238.1999969,4007.4464969569626,4.813989639,-4.18649435,9.067543983
30.86666679,63.21666718,238.5666656,4007.456496973175,1.595083117,-0.8238867521,8.97653389
30.21666718,66.03333282,240.2833405,4007.466496989387,7.711963177,2.897973776,7.209009171
29.04999924,66.78333282,239.25,4007.4764970055994,1.178349614,0.2969824374,14.86828232
29.29999924,67.65000153,236.8333282,4007.4864970218114,0.7041357756,-5.762417316,19.09309578
29.93333244,63.41666794,233.6999969,4007.496497038024,5.886958122,-2.318378925,9.627979279
30.5,57.68333435,230.6833344,4007.506497054236,8.008945465,-1.350791097,4.655918121
29.03333282,54.88333511,231.9333344,4007.516497070448,1.398691416,0.8382568955,5.245092869
26.53333282,53.31666565,229.6000061,4007.5264970866606,0.3448828161,-0.172441408,5.685776711
32.45000076,42.16666794,235.4833374,4007.536497102873,-1.489702225,-6.073769569,11.29491234
33.15000153,32.59999847,227.1000061,4007.546497119085,-1.211879969,-1.317260742,7.405400753
22.26666641,13.75,225.0666656,4007.5564971352974,-0.2969824374,-0.1532812566,8.071216583
9.183333397,8.649999619,227.0333405,4007.5664971515093,-4.598437786,-0.7520361543,4.579277515
-0.06666667014,9.25,226.9499969,4007.5764971677218,-0.9675879478,0.5604345798,6.883286476
-3.200000048,12.86666679,221.6000061,4007.586497183934,-4.133803844,-7.788603783,9.18729496
6.800000191,14.10000038,214.0666656,4007.596497200146,2.921923876,0.857417047,13.12949753
17.36666679,17.38333321,215.6499939,4007.6064972163585,0.8143066764,0.7951465249,9.709409714
30.79999924,24.36666679,218.6333313,4007.6164972325705,3.070415258,1.403481483,4.21044445
33.83333206,35.08333206,215.1999969,4007.626497248783,-4.818779469,0.4071533382,4.641548157
25.76666641,37.66666794,212.0666656,4007.6364972649953,6.873706341,-5.97796917,6.849756241
11.71666622,34.29999924,219.9333344,4007.6464972812073,-2.016606569,0.0239501968,14.15456581
-0.1833333373,46.09999847,224.0166626,4007.6564972974197,6.600674152,1.959126115,16.16159248
-9.083333015,47.16666794,228.7166595,4007.6664973136317,-1.887275457,1.63340342,16.58311653
-16.03333282,26.51666641,234.4666595,4007.676497329844,-3.036884785,-0.5077441335,11.66853523
-22.70000076,10.33333302,237.6666718,4007.6864973460565,-1.393901467,-2.931504011,13.2971487
-31.33333397,-2.566666603,237.8666687,4007.6964973622685,3.075205326,0.6322851777,14.07313538
-41.56666565,-14.28333378,234.2333374,4007.706497378481,-2.720742226,1.978286266,14.00607491
-42.70000076,-37.66666794,230.5666656,4007.716497394693,0.4837939739,-4.406836033,15.09820366
-28.25,-63.73333359,237.4499969,4007.7264974109053,-4.617598057,-4.425996304,19.18410683
-13.80000019,-70.01667023,240.5833282,4007.7364974271177,-0.1389111429,-6.595883846,19.41403008
-1.600000024,-73.0,247.25,4007.7464974433296,2.735112429,0.9053174257,19.46612167
6.25,-85.09999847,254.8999939,4007.756497459542,5.460644722,1.207089901,19.46612167
12.66666698,-82.06666565,263.6499939,4007.766497475754,-3.343447447,-2.533930779,19.46612167
18.36666679,-83.34999847,270.2166748,4007.7764974919664,1.753154397,-3.324287176,19.46612167
22.0,-89.73332977,268.6499939,4007.786497508179,-3.544629097,-5.379214287,19.46612167
22.41666603,-96.19999695,263.3999939,4007.796497524391,7.352710247,0.1772314459,19.46612167
19.91666603,-100.5333328,256.4500122,4007.8064975406032,2.332749128,0.2778222859,19.46612167
13.66666698,-100.7166672,250.5333405,4007.8164975568156,0.273032248,0.8861572742,19.46612167
5.766666889,-90.51667023,253.9499969,4007.8264975730276,-2.495610476,-3.472778559,19.46612167
4.966666698,-82.31666565,259.1833191,4007.83649758924,1.72441411,-2.030976534,19.46612167
15.9333334,-92.96666718,261.7999878,4007.846497605452,2.509980679,-2.792593002,19.46612167
24.28333282,-98.23332977,260.2166748,4007.8564976216644,6.313271523,-1.12086916,19.46612167
26.83333397,-90.01667023,268.9166565,4007.866497637877,-1.015488267,-1.451381922,19.46612167
31.20000076,-78.98332977,277.6166687,4007.876497654089,-0.004790039267,-4.962480545,19.46612167
37.84999847,-77.43333435,278.2333374,4007.886497670301,3.659590006,-2.874023676,19.46612167
35.53333282,-77.94999695,284.3666687,4007.896497686513,2.950664282,-0.5316943526,19.46612167
28.63333321,-77.19999695,288.3166809,4007.9064977027256,3.453618288,-0.6274951696,19.46612167
25.73333359,-66.44999695,291.25,4007.916497718938,-2.447710037,-4.339775562,19.46612167
25.08333397,-56.26666641,295.1666565,4007.92649773515,2.600991249,-7.23295927,19.46612167
29.28333282,-56.58333206,296.0166626,4007.9364977513624,-0.4742138982,-3.242856503,19.46612167
41.31666565,-58.41666794,295.2000122,4007.9464977675743,1.456171989,-1.087338924,19.46612167
40.73333359,-59.90000153,294.7999878,4007.9564977837867,1.733994246,-4.334985733,19.46612167
38.53333282,-54.56666565,294.7666626,4007.966497799999,-2.921923876,-3.865561724,19.46612167
37.16666794,-35.25,295.4666748,4007.976497816211,-1.23104012,-5.968389034,19.46612167
36.08333206,-25.64999962,296.2333374,4007.9864978324235,1.834585071,-2.399809599,19.46612167
33.16666794,-24.16666603,293.6166687,4007.9964978486355,1.312470794,-1.159189463,19.46612167
27.93333244,-25.46666718,297.6499939,4008.006497864848,-3.635639906,-2.969824314,19.46612167
24.01666641,-31.04999924,299.5333252,4008.0164978810603,0.8909472823,-4.97206068,19.46612167
26.56666756,-29.45000076,297.1000061,4008.0264978972723,-4.282295227,-3.961362362,19.46612167
28.01666641,-22.71666718,294.0,4008.0364979134847,4.071533203,-0.6514453292,19.46612167
23.53333282,-14.36666679,293.25,4008.046497929697,1.068178773,-0.5125342011,19.46612167
16.53333282,-7.866666794,289.0,4008.056497945909,-1.604663134,-1.23104012,19.46612167
13.30000019,-3.766666651,285.0166626,4008.0664979621215,0.5987548828,-6.121670246,19.46612167
13.0,-5.833333492,283.0,4008.0764979783335,-1.101709008,-1.293310642,19.46612167
13.53333378,-1.433333278,281.7166748,4008.086497994546,1.714834094,-0.3353027403,19.46612167
10.85000038,-0.5333333611,286.7833252,4008.0964980107583,0.546064496,-1.619033217,19.46612167
7.316666603,-0.1666666716,291.8333435,4008.1064980269703,-3.741020679,-3.836821556,19.46612167
3.783333302,0.2833333313,293.3500061,4008.1164980431827,1.331630945,-5.930068493,19.46612167
2.516666651,0.6833333373,292.75,4008.1264980593946,2.074086905,-1.537602663,19.46612167
1.366666675,1.716666698,290.8999939,4008.136498075607,-1.001118183,2.433339834,19.46612167
6.900000095,-0.4666666687,285.9333191,4008.1464980918195,-2.46208024,-0.6322851777,19.46612167
12.96666622,-3.983333349,287.0666809,4008.1564981080314,-2.969824314,-4.746928692,19.46612167
4.5,7.166666508,283.0,4008.166498124244,-0.7328760028,-6.107300282,19.46612167
-3.349999905,25.96666718,282.8833313,4008.176498140456,3.779340982,-0.04311035201,19.46612167
-20.08333397,17.63333321,284.0,4008.186498156668,0.2826123238,2.759062529,19.46612167
-45.63333511,30.10000038,280.2999878,4008.1964981728806,-0.9196875095,-0.2586621344,19.46612167
-63.93333435,67.30000305,273.8833313,4008.2064981890926,-2.351909399,-3.851191521,19.46612167
-61.90000153,91.3666687,273.4500122,4008.216498205305,2.44291997,-1.317260742,13.69951248
-58.90000153,87.41666412,277.6166687,4008.226498221517,6.207890987,1.130449295,11.58231449
-68.1166687,87.59999847,285.2166748,4008.2364982377294,0.3209326267,3.329077244,5.278623104
-71.8666687,88.78333282,285.3999939,4008.246498253942,-3.836821556,-0.5077441335,11.00271988
-75.51667023,92.16666412,283.8333435,4008.2564982701538,0.4215234518,-3.860771656,10.01597214
-87.23332977,90.08333588,276.8999939,4008.266498286366,-0.1963916123,0.857417047,8.406518936
-90.48332977,82.06666565,273.6833191,4008.276498302578,2.806962967,4.253554821,7.6161623
-89.0,80.41666412,273.7166748,4008.2864983187906,3.755390882,0.09580078721,0.8669971228
-98.80000305,87.69999695,273.7000122,4008.296498335003,-1.551972747,-1.427431703,-1.777104616
-103.1833344,92.75,273.4333191,4008.306498351215,0.8382568955,-4.608017921,3.396137953
-87.69999695,85.55000305,273.6333313,4008.3164983674274,1.254990339,1.671723723,0.4981640875
-78.19999695,84.30000305,270.7833252,4008.32649838364,0.4167334139,1.901645541,2.998564482
-74.30000305,84.26667023,267.8333435,4008.3364983998517,2.395019531,1.350791097,0.6466553211
-70.93333435,86.53333282,262.9333191,4008.346498416064,-3.324287176,-1.973496199,-1.757944465
-69.0,87.66666412,260.5499878,4008.356498432276,1.417851567,-1.863325238,0.2347119302
-71.16666412,93.93333435,267.1666565,4008.3664984484885,5.063071728,2.883603573,-0.8143066764
-72.66666412,99.3666687,268.2833252,4008.376498464701,0.3975732625,7.333549976,-2.126777411
-70.71666718,95.25,267.4666748,4008.386498480913,-1.561552763,-1.159189463,-4.148173809
-69.43333435,85.65000153,269.6166687,4008.3964984971253,0.3496728539,-4.061953068,-6.844965935
-64.41666412,85.15000153,274.25,4008.4064985133373,-2.447710037,-1.087338924,-2.792593002
-45.09999847,83.78333282,278.5166626,4008.4164985295497,0.09101074934,4.459526539,-0.9771680236
-26.88333321,65.56666565,278.1333313,4008.426498545762,0.4454736412,1.911225677,1.36516118
-15.03333378,54.25,281.5499878,4008.436498561974,-6.959927082,-0.1820214987,-0.4215234518
-12.21666622,36.28333282,283.6166687,4008.4464985781865,-6.710844994,-2.682421923,7.482041359
-9.0,24.20000076,277.4666748,4008.4564985943985,1.053808689,1.863325238,0.2921923995
-9.25,32.33333206,282.0499878,4008.466498610611,-1.197509766,5.067861557,4.775669098
-11.10000038,28.95000076,283.5333252,4008.4764986268233,-4.397255898,2.878813505,11.88887787
-18.03333282,19.45000076,285.2166748,4008.4864986430352,-8.430469513,-1.16397953,9.45074749
-23.01666641,16.18333244,281.0,4008.4964986592477,-1.178349614,-3.855981588,11.56794453
-25.23333359,17.26666641,279.7999878,4008.5064986754596,0.6370752454,-0.6322851777,9.939331055
-28.76666641,18.43333244,279.5833435,4008.516498691672,2.395019531,4.655918121,10.19799328
-35.31666565,18.60000038,274.4666748,4008.5264987078845,1.336421013,0.119750984,15.11257362
-48.70000076,9.966666222,270.4666748,4008.5364987240964,-6.490503311,-0.4119433761,14.05876541
-58.09999847,1.649999976,262.4166565,4008.546498740309,1.020278335,-1.015488267,13.83842373
-53.51666641,3.799999952,263.4166565,4008.556498756521,1.935175896,3.324287176,13.51749039
-43.01666641,21.81666756,271.6166687,4008.566498772733,-3.38176775,2.912343979,14.15935612
-33.93333435,44.26666641,278.0833435,4008.5764987889456,-4.842729568,-1.690883875,15.85023975
-30.78333282,58.43333435,275.3166809,4008.5864988051576,-2.62015152,-2.850073338,17.63692474
-30.66666603,56.01666641,265.6833191,4008.59649882137,-3.305127144,-2.668051958,10.75363827
-27.11666679,54.41666794,264.7166748,4008.6064988375824,-0.2826123238,3.563789129,17.27767181
-28.83333397,53.48333359,257.2833252,4008.6164988537944,-6.682104588,0.6035449505,19.22721672
-31.31666756,51.83333206,255.8999939,4008.626498870007,-3.132685661,-0.7759863734,15.58678818
-33.90000153,30.60000038,254.4833374,4008.6364988862188,-4.957690716,-5.249883175,19.46612167
-33.73333359,23.96666718,260.2833252,4008.646498902431,-2.553090811,-1.868115306,18.83922386
-34.16666794,28.04999924,265.4166565,4008.6564989186436,3.099155426,4.315825462,19.46612167
-41.88333511,26.86666679,263.4833374,4008.6664989348556,-0.3257226646,-0.1293310672,19.46612167
-41.34999847,25.56666756,259.9666748,4008.676498951068,-0.8190967441,1.326840878,19.24637794
-41.88333511,31.36666679,262.3999939,4008.68649896728,3.285966873,-6.246211052,18.41770172
-45.23333359,37.45000076,266.2000122,4008.6964989834923,3.764970779,0.1820214987,8.253237724
-44.48333359,38.31666565,267.9833374,4008.7064989997048,7.046147823,1.762734413,6.251001358
-42.61666489,32.76666641,268.7833252,4008.7164990159167,1.777104616,-1.599873066,14.64793968
-43.90000153,27.0,269.3666687,4008.726499032129,-4.047583103,1.59029305,8.02331543
-49.83333206,21.96666718,270.75,4008.736499048341,-2.361489296,-4.852309704,14.16414642
-54.11666489,14.0,272.0666809,4008.7464990645535,-0.934057653,-0.06227051094,10.24589443
-50.04999924,8.516666412,270.5666809,4008.756499080766,-4.018843174,5.623506069,12.42536163
-57.01666641,12.05000019,272.8333435,4008.766499096978,-4.052373409,-0.5316943526,12.82772541
-58.93333435,11.8166666,276.3999939,4008.7764991131903,-6.073769569,2.433339834,16.78429794
-55.61666489,2.383333445,279.7333374,4008.7864991294023,-6.284531593,-5.072651386,15.05988312
-59.26666641,1.166666627,278.9500122,4008.7964991456147,2.088457108,-0.5269043446,16.14722252
-66.84999847,0.8000000119,284.0333252,4008.806499161827,-1.930385828,2.806962967,19.46612167
-65.19999695,-6.550000191,284.3500061,4008.816499178039,-0.6131250262,-2.840493202,19.46612167
-59.88333511,-11.25,284.5833435,4008.8264991942515,-1.666933656,-3.362607479,19.46612167
-55.75,-1.883333325,278.0833435,4008.836499210464,3.812871218,-4.19128418,19.46612167
-50.98333359,7.366666794,279.0,4008.846499226676,5.542075634,-0.4215234518,19.46612167
-49.73333359,20.89999962,279.75,4008.8564992428883,0.1389111429,3.209326267,19.46612167
-53.46666718,42.09999847,281.2000122,4008.8664992591002,-0.4598437548,-2.562670946,19.46612167
-52.68333435,42.36666489,290.1000061,4008.8764992753127,-1.245410204,-2.984194517,19.46612167
-58.01666641,15.86666679,291.2999878,4008.886499291525,0.4885840118,-0.4263134897,19.46612167
-77.09999847,13.4333334,301.8166809,4008.896499307737,-0.622705102,1.877695441,18.50871086
-82.0,4.766666889,302.3333435,4008.9064993239494,0.9292676449,4.344565392,12.54990292
-68.81666565,-3.333333254,301.5,4008.9164993401614,-6.629414558,0.8334668279,11.76433659
-44.04999924,4.433333397,302.5166626,4008.926499356374,-3.070415258,-1.848955154,12.76066494
-27.28333282,33.96666718,295.8333435,4008.9364993725862,-0.5939648747,-0.3353027403,15.1365242
-29.38333321,66.09999847,289.4500122,4008.946499388798,0.3065625131,1.733994246,13.96296406
-37.13333511,71.23332977,295.3999939,4008.9564994050106,-1.551972747,3.103945494,8.756192207
-46.81666565,93.5,311.4333191,4008.9664994212226,-4.038002968,-4.21044445,12.58343315
-57.46666718,106.7833328,324.2000122,4008.976499437435,-2.715952158,-6.595883846,19.46612167
-62.08333206,83.83333588,337.1000061,4008.9864994536474,0.2634521723,0.1532812566,14.01565456
-62.86666489,49.65000153,361.3500061,4008.9964994698594,-0.6514453292,3.123105526,12.79898453
-66.28333282,60.96666718,372.5,4009.006499486072,1.714834094,2.41896987,6.294111729
-67.6333313,74.09999847,389.1833191,4009.0164995022838,-4.282295227,0.6274951696,0.6610254049
-86.15000153,77.71666718,394.0666809,4009.026499518496,-0.8765771985,-1.144819379,8.339458466
-118.3499985,89.46666718,387.4333191,4009.0364995347086,3.822451353,0.01437011734,3.108735561
-140.2833405,98.34999847,379.4500122,4009.0464995509205,0.07185059041,4.124223709,8.555009842
-149.8166656,84.16666412,373.8999939,4009.056499567133,-1.346001029,-0.5987548828,7.151528835
-158.5500031,93.33333588,375.7833252,4009.066499583345,-4.56969738,0.3065625131,4.766088963
-174.2333374,133.25,375.3666687,4009.0764995995573,3.764970779,-3.151845932,-1.307680726
-168.9333344,136.0833282,388.9500122,4009.0864996157698,0.09101074934,3.266806841,4.133803844
-174.7166595,121.5,400.1833191,4009.0964996319817,-6.456973076,5.034331322,9.92496109
-194.7166595,142.5166626,403.8166809,4009.106499648194,-7.558681965,-1.815424919,3.036884785
-201.8500061,162.2666626,400.5499878,4009.1164996644065,-3.429668188,-0.5316943526,10.27463436
-192.1999969,172.8500061,403.6333313,4009.1264996806185,-1.987866282,2.543510914,-11.40508366
-179.25,187.75,410.6333313,4009.136499696831,3.578159332,7.223379135,-14.32700729
-171.8000031,172.2333374,407.7000122,4009.146499713043,1.43222177,7.438930988,-16.90404892
-165.2833405,141.1499939,406.1000061,4009.1564997292553,-8.823252678,0.6562353969,-19.62000084
-173.2833405,142.5166626,399.4833374,4009.1664997454677,2.208208084,-3.324287176,-4.531377316
-173.5666656,142.5500031,393.8666687,4009.1764997616797,5.479804993,1.561552763,-8.372988701
-163.8166656,131.0333405,395.0499878,4009.186499777892,6.557563782,5.364843845,-13.06243706
-150.4333344,122.8833313,399.3500061,4009.196499794104,1.7914747,4.622387886,-18.21172905
-143.4499969,132.4166718,392.5666809,4009.2064998103165,1.422641635,3.616479635,-17.62734413
-138.8500061,136.8500061,385.7000122,4009.216499826529,-2.888393641,-2.395019531,-19.62000084
-133.5333405,136.5833282,380.7833252,4009.226499842741,3.937412262,6.289321423,-19.62000084
-132.1666718,134.1499939,379.7999878,4009.2364998589533,-2.715952158,3.817661285,-19.62000084
-133.8833313,134.3666687,378.6833191,4009.2464998751652,-2.198627949,1.044228554,-19.62000084
-137.0666656,132.3166656,378.2333374,4009.2564998913776,-6.902446747,-2.586621284,-19.62000084
-137.6833344,126.25,375.1000061,4009.26649990759,-9.053174019,1.32205081,-19.62000084
-133.8333282,122.6333313,373.25,4009.276499923802,0.8143066764,6.653364658,-19.62000084
-133.0500031,120.3666687,379.2000122,4009.2864999400144,-7.443720818,8.195756912,-19.62000084
-136.4333344,119.0833359,381.3999939,4009.2964999562264,-6.509663582,-1.408271551,-19.62000084
-134.1166687,115.1333313,380.3166809,4009.306499972439,-7.635322571,0.5316943526,-12.22418022
-133.4833374,102.9499969,375.2333374,4009.3164999886512,-5.64266634,-3.760180712,-10.02076244
-145.25,103.9333344,374.3999939,4009.326500004863,-3.683540106,3.975732565,-10.86859894
-154.3999939,96.08333588,373.7666626,4009.3365000210756,-1.580712914,5.949228764,-8.099956512
-171.3000031,82.76667023,378.5666809,4009.3465000372876,-7.539521694,1.111289144,-3.975732565
-166.3999939,95.96666718,380.4166565,4009.3565000535,4.311035156,4.746928692,0.9963281751
-154.5666656,113.5833359,380.1833191,4009.3665000697124,2.850073338,4.933740616,7.9945755
-150.2333374,118.3499985,381.1499939,4009.3765000859244,3.975732565,5.839057922,8.420888901
-143.3500061,118.5333328,377.6499939,4009.386500102137,-1.968706131,1.020278335,-6.955137253
-154.8999939,109.1166687,374.6833191,4009.396500118349,-6.615044117,-0.5269043446,4.009263039
-188.75,109.8666687,376.7166748,4009.406500134561,-6.610254288,-2.639311552,-5.302573681
-201.6333313,119.6666641,375.75,4009.4165001507736,-0.105380863,5.609136105,-7.266489506
-183.25,121.4499969,379.2166748,4009.4265001669855,-3.669170141,8.157437325,-4.100273609
-173.5666656,125.3000031,377.5166626,4009.436500183198,-4.296665192,-1.034648538,-4.526587009
-161.0500031,130.4833374,379.5166626,4009.4465001994104,1.216669917,-0.6706054807,1.302890658
-164.1999969,122.4333344,378.3333435,4009.4565002156223,-8.966953278,-1.796264768,-6.85454607
-182.6333313,110.7833328,380.2999878,4009.4665002318347,-1.896855593,5.33131361,1.216669917
-196.5333405,108.2166672,377.0333252,4009.4765002480467,-9.292675972,2.682421923,-0.03353027627
-200.6666718,111.5333328,367.4833374,4009.486500264259,-4.531377316,0.3736230731,-0.5987548828
-195.1166687,110.5833359,359.8500061,4009.4965002804715,3.669170141,0.1820214987,3.051254988
-188.8999939,106.4333344,357.1499939,4009.5065002966835,-0.1389111429,1.039438486,6.7874856
-191.4499969,110.1999969,356.0,4009.516500312896,5.35526371,7.026987553,2.615361452
-197.6833344,120.8833313,354.3999939,4009.526500329108,0.3592529595,-3.24764657,6.988667488
-203.1333313,129.6166687,352.2666626,4009.5365003453203,1.508862376,-0.2586621344,2.136357546
-211.0500031,133.9499969,354.3999939,4009.5465003615327,-6.595883846,0.4550537169,1.753154397
-212.5166626,130.8333282,361.7333374,4009.5565003777447,0.04311035201,4.574487686,-0.378413111
-204.7833405,121.5833359,364.5499878,4009.566500393957,-7.793394089,8.674760818,2.409389734
-199.6499939,113.6666641,363.5833435,4009.576500410169,-2.514770508,-1.63340342,14.31263733
-192.1333313,110.1833344,362.5333252,4009.5865004263815,-1.868115306,1.556762815,8.076005936
-192.1833344,106.6333313,359.5499878,4009.596500442594,-5.019961357,-1.331630945,-9.795630455
-192.6666718,105.0833359,366.9833374,4009.606500458806,5.436694622,7.328760147,-1.3891114
-184.9499969,114.1333313,374.5166626,4009.6165004750183,-11.18474197,4.938530445,-8.895102501
-192.6000061,121.0500031,391.0499878,4009.6265004912307,2.351909399,0.3496728539,-0.08143066615
-179.8000031,104.5500031,416.0833435,4009.6365005074426,-12.78461456,-2.931504011,7.606582165
-180.2833405,108.5833359,423.5,4009.646500523655,-5.805527687,1.872905374,4.746928692
-195.3999939,123.3333359,401.1666565,4009.656500539867,-8.095166206,6.87849617,9.398056984
-219.1333313,123.0166702,378.1166687,4009.6665005560794,-0.3544628918,-2.883603573,12.60738373
-237.3166656,137.0666656,373.6499939,4009.676500572292,-0.1868115366,4.23439455,19.46612167
-224.3666687,152.2333374,370.6499939,4009.686500588504,-3.415297985,-2.605781317,14.03002548
-208.3000031,161.3666687,376.9833374,4009.696500604716,4.938530445,5.66661644,12.3487215
-211.6833344,162.2666626,392.6333313,4009.706500620928,-4.430786133,4.742138863,-6.974297047
-221.8999939,158.6000061,384.1333313,4009.7165006371406,-6.409072399,-1.733994246,2.629731655
-235.5500031,150.9333344,376.2333374,4009.726500653353,-2.754272461,-1.049018621,8.420888901
-229.0500031,152.8166656,385.3500061,4009.736500669565,2.816543102,0.273032248,7.031777859
-242.5333405,151.2833405,398.1000061,4009.7465006857774,-5.034331322,7.472461224,15.29938507
-274.8500061,149.0166626,401.5,4009.7565007019894,-2.826123238,1.427431703,1.451381922
-271.2999878,145.1999969,398.6833191,4009.7665007182018,-8.099956512,0.9915381074,-3.04646492
-269.2999878,143.0,393.3500061,4009.776500734414,-2.308799028,0.205971688,-16.19033241
-264.3333435,138.1999969,388.3500061,4009.786500750626,-4.818779469,3.391347885,-7.6161623
-245.6000061,138.25,380.4333191,4009.7965007668386,-13.9054842,4.756508827,-6.466553211
-219.1499939,168.2333374,378.7000122,4009.8065007830505,-5.460644722,-2.84528327,-7.573051929
-198.0833282,172.6499939,372.8833313,4009.816500799263,-3.578159332,-0.2011816502,8.483160019
-217.8666687,162.1333313,367.5499878,4009.8265008154754,2.203418016,2.275268555,3.755390882
-237.4666595,177.9166718,393.3999939,4009.8365008316873,8.420888901,10.82069874,10.32732487
-275.8666687,141.6499939,396.6833191,4009.8465008478997,-4.330195427,2.969824314,-0.6658154726
-290.4666748,102.9499969,380.1666565,4009.8565008641117,-1.015488267,4.90500021,0.2011816502
-316.0166626,90.48332977,377.75,4009.866500880324,-11.50567436,-1.939965844,-1.087338924
-318.6499939,88.53333282,374.6000061,4009.8765008965365,-1.101709008,1.753154397,-4.47868681
-328.5,71.81666565,346.5833435,4009.8865009127485,-6.351592064,8.444839478,-2.653681755
-313.2000122,65.33333588,321.9500122,4009.896500928961,4.023633003,-4.339775562,8.71308136
-254.4833374,65.46666718,321.7333374,4009.9065009451733,7.25690937,2.107617378,16.2238636
-228.0500031,54.51666641,343.2166748,4009.9165009613853,-4.243974686,3.879931688,2.974614382
-225.4499969,10.08333302,327.7833252,4009.9265009775977,8.478369713,8.559800148,1.65735364
-228.2333374,-9.916666985,302.0666809,4009.9365009938097,-8.933423042,3.458408356,1.111289144
-254.75,-10.01666641,317.0833435,4009.946501010022,-3.2045362,-1.288520575,-10.90691948
-245.1666718,7.766666889,364.8999939,4009.9565010262345,-6.265371323,-3.319497108,3.78413105
-208.0166626,1.116666675,382.2333374,4009.9665010424465,-8.167016983,-2.648891687,19.46612167
-189.8500061,-8.149999619,371.6833191,4009.976501058659,-10.71531773,5.973178864,19.46612167
-180.0333405,-3.233333349,369.9833374,4009.986501074871,-4.493056774,-0.4311035275,19.46612167
-173.1999969,-3.483333349,371.5833435,4009.9965010910832,0.5269043446,0.1005908251,19.46612167
-184.0833282,-2.216666698,371.2833252,4010.0065011072957,1.52323246,0.105380863,14.10187531
-205.8000031,-6.216666698,371.2999878,4010.0165011235076,0.7472461462,4.152964115,18.59493256
-227.4166718,-33.90000153,369.5166626,4010.02650113972,-11.33802319,-2.289638758,19.46612167
-217.0666656,-63.71666718,353.8166809,4010.036501155932,-2.773432732,-6.413862705,19.46612167
-190.7333374,-56.41666794,356.3833313,4010.0465011721444,-4.363725662,-7.529941559,19.46612167
-180.9333344,-43.33333206,354.1166687,4010.056501188357,-1.494492292,-0.76161623,19.46612167
-200.6833344,-35.84999847,347.0,4010.066501204569,-0.105380863,10.71531773,19.46612167
-213.0500031,-34.33333206,345.1499939,4010.076501220781,-3.482358456,2.189048052,19.46612167
-216.9166718,-46.70000076,347.4666748,4010.086501236993,-3.616479635,3.611689568,19.46612167
-232.8333282,-46.09999847,351.1000061,4010.0965012532056,-3.903882027,-0.9963281751,19.46612167
-231.9166718,-41.29999924,352.9833374,4010.106501269418,0.9867480993,-4.028422832,19.46612167
-215.6333313,-23.5,357.5333252,4010.11650128563,-1.475332141,0.6322851777,19.46612167
-181.9333344,-4.099999905,352.4500122,4010.1265013018424,-4.52179718,-3.314707279,19.46612167
-148.7333374,3.333333254,337.1833191,4010.1365013180543,-5.824687958,-0.5125342011,19.46612167
-134.2333374,3.083333254,322.3833313,4010.1465013342668,-2.586621284,0.8190967441,19.46612167
-128.9499969,4.849999905,314.6666565,4010.156501350479,-3.956572533,6.437812805,19.46612167
-127.7333298,6.866666794,312.0166626,4010.166501366691,-4.071533203,-4.54574728,19.46612167
-122.5166702,2.266666651,317.3666687,4010.1765013829036,-3.5829494,-3.707490444,19.46612167
-123.3499985,-2.450000048,321.0166626,4010.186501399116,-3.056045055,-6.892866611,19.46612167
-116.5,-8.850000381,322.0833435,4010.196501415328,-0.06227051094,-1.350791097,19.46612167
-104.7833328,-19.18333244,323.9666748,4010.2065014315403,-3.161425829,2.399809599,19.46612167
-108.3666687,-32.78333282,330.9666748,4010.2165014477523,3.070415258,-4.655918121,19.46612167
-103.9833298,-45.36666489,338.8500061,4010.2265014639647,1.623823285,-4.344565392,19.46612167
-107.6333313,-43.68333435,342.1000061,4010.236501480177,-0.05748046935,-3.659590006,19.46612167
-109.4333344,-35.86666489,335.8166809,4010.246501496389,-2.050136805,-0.8047266006,19.46612167
-98.68333435,-24.56666756,323.9666748,4010.2565015126015,-3.678750038,-1.777104616,19.46612167
-93.91666412,-16.54999924,323.7999878,4010.2665015288135,-3.161425829,-5.589975834,19.46612167
-92.71666718,-17.16666603,332.9500122,4010.276501545026,-1.187929749,-3.487148523,19.46612167
-64.3833313,-20.98333359,349.7000122,4010.2865015612383,0.8909472823,0.08143066615,19.46612167
-23.18333244,-16.78333282,356.5833435,4010.2965015774503,-4.761299133,2.256108522,19.46612167
-9.016666412,-3.950000048,343.1666565,4010.3065015936627,-0.05269043148,-1.403481483,19.46612167
0.4166666567,-1.333333373,327.6833191,4010.3165016098746,-8.181386948,-2.251318455,19.46612167
14.5,1.833333373,316.2333374,4010.326501626087,-3.755390882,-6.155200481,19.46612167
28.13333321,5.266666889,307.8333435,4010.3365016422995,1.302890658,-1.111289144,19.46612167
11.1833334,0.3166666627,305.4666748,4010.3465016585114,5.987549305,1.278940439,19.46612167
-3.5,-5.0,301.9500122,4010.356501674724,-2.045346737,-4.325405598,19.46612167
-11.85000038,-8.0,283.3500061,4010.366501690936,3.228486538,-2.198627949,19.46612167
-1.983333349,-1.283333302,268.3666687,4010.3765017071482,2.41896987,-3.927832127,19.46612167
10.55000019,8.033333778,264.0,4010.3865017233607,6.701264858,-0.1101709008,19.46612167
25.0,27.20000076,268.3166809,4010.3965017395726,0.6849756241,-4.16733408,19.46612167
38.86666489,31.53333282,277.2166748,4010.406501755785,-1.580712914,-2.854863405,19.46612167
58.65000153,14.08333302,290.2999878,4010.4165017719974,-2.433339834,-5.652246475,19.46612167
81.81666565,7.766666889,297.6000061,4010.4265017882094,4.014052868,-1.096918941,14.0491848
98.34999847,18.53333282,303.1666565,4010.436501804422,0.1820214987,-0.9196875095,19.46612167
103.6833344,25.54999924,310.7833252,4010.446501820634,-1.173559666,-0.8669971228,19.46612167
92.40000153,26.70000076,314.0333252,4010.456501836846,-6.466553211,-5.441484451,19.46612167
89.26667023,28.28333282,324.8166809,4010.4665018530586,-6.279741287,-7.419770718,19.46612167
81.56666565,32.38333511,332.5166626,4010.4765018692706,4.536167145,-3.161425829,19.46612167
82.23332977,38.13333511,334.2666626,4010.486501885483,3.262016773,1.719624043,12.296031
82.1333313,42.25,334.4500122,4010.496501901695,6.969507217,-4.799619198,15.82629013
81.3833313,41.65000153,331.2833252,4010.5065019179074,5.364843845,-5.000801086,19.46612167
71.56666565,34.54999924,318.6000061,4010.51650193412,2.701582193,-3.846401453,19.37091827
62.54999924,40.90000153,318.1333313,4010.5265019503317,4.248764992,-2.361489296,19.38049889
62.88333511,47.61666489,316.7166748,4010.536501966544,4.588857651,-1.159189463,19.46612167
63.38333511,50.36666489,318.2166748,4010.546501982756,2.193837881,-2.672842026,18.27878952
57.5,46.54999924,312.2000122,4010.5565019989685,5.527705193,-3.535048962,15.53409767
49.15000153,58.33333206,297.8333435,4010.566502015181,4.014052868,-0.9723779559,16.62622643
34.61666489,69.33333588,286.1333313,4010.576502031393,2.26089859,1.99265635,9.771679878
11.55000019,80.73332977,287.7666626,4010.5865020476053,2.533930779,-2.754272461,8.099956512
5.316666603,67.28333282,298.0,4010.5965020638173,-0.8095166087,-5.867798328,12.09484959
11.75,62.04999924,294.3999939,4010.6065020800297,-1.7914747,-4.622387886,13.62766171
21.33333397,62.58333206,288.0166626,4010.616502096242,2.577041149,-2.850073338,11.6397953
35.68333435,71.34999847,284.1333313,4010.626502112454,1.978286266,2.217788219,6.179150581
34.86666489,79.84999847,281.3833313,4010.6365021286665,1.197509766,1.001118183,4.713398457
21.25,84.31666565,268.4833374,4010.6465021448785,-1.43222177,-3.108735561,18.12550926
6.116666794,82.31666565,271.9833374,4010.656502161091,-1.168769598,-2.217788219,19.46612167
-5.466666698,82.6166687,279.6000061,4010.6665021773033,7.95146513,-0.6322851777,12.44931221
-14.10000038,77.31666565,286.9500122,4010.6765021935153,4.425996304,-1.235830188,12.19064999
-14.08333302,78.48332977,284.4333191,4010.6865022097277,2.347119331,-2.677631855,0.6801855564
-14.75,70.58333588,289.3833313,4010.69650222594,9.45074749,-5.427114487,2.912343979
-4.900000095,51.65000153,296.4333191,4010.706502242152,5.374423981,-2.600991249,10.87338924
2.733333349,42.53333282,294.4500122,4010.7165022583645,3.453618288,1.106499076,8.622070312
12.1833334,50.0,289.3833313,4010.7265022745764,3.075205326,-0.2538720667,16.79387856
20.11666679,64.23332977,308.6666565,4010.736502290789,-2.802172899,-4.066743374,16.92320824
32.43333435,64.26667023,325.9333191,4010.7465023070013,2.088457108,-9.110654831,13.64682198
40.38333511,46.93333435,339.2333374,4010.756502323213,7.012617588,-0.4790039361,2.878813505
47.41666794,52.34999847,336.1000061,4010.7665023394256,-3.9853127,2.869233608,10.27463436
58.86666489,58.96666718,327.3833313,4010.7765023556376,-1.149609447,-2.936294079,8.588540077
72.26667023,61.01666641,317.0833435,4010.78650237185,-3.697910309,-4.823569775,12.4445219
89.31666565,60.38333511,327.9333191,4010.7965023880624,-1.65735364,-3.812871218,15.00719261
122.0166702,39.36666489,333.2166748,4010.8065024042744,4.493056774,-1.848955154,12.9187355
119.4166641,33.75,347.8833313,4010.816502420487,-1.087338924,1.561552763,14.61919975
119.4499969,39.15000153,365.5833435,4010.826502436699,-5.321733475,-2.677631855,19.46612167
121.5833359,28.16666603,366.3500061,4010.836502452911,-1.901645541,-4.220024586,19.46612167
135.5666656,20.29999924,343.3999939,4010.8465024691236,-1.676513791,-2.715952158,19.46612167
145.1666718,7.366666794,324.8666687,4010.8565024853356,10.21236324,-2.682421923,19.46612167
155.2666626,-1.466666698,327.9666748,4010.866502501548,1.666933656,0.2826123238,19.46612167
151.8833313,2.183333397,340.2166748,4010.87650251776,-5.982758999,-5.201982498,19.46612167
127.9333344,23.38333321,340.9333191,4010.8865025339724,-2.495610476,-8.358618736,19.46612167
114.7666702,48.56666565,333.5833435,4010.896502550185,-2.423759937,-4.967270851,19.46612167
110.5,66.73332977,323.1333313,4010.9065025663967,0.3592529595,-4.105063438,19.46612167
161.2666626,31.13333321,329.2166748,4010.916502582609,-1.43222177,-0.8526269794,19.46612167
159.5500031,-0.8500000238,333.4333191,4010.926502598821,-4.378096104,-3.396137953,19.46612167
131.3500061,-10.53333378,328.1333313,4010.9365026150335,-5.886958122,-6.409072399,19.46612167
137.7666626,-11.0666666,314.9666748,4010.946502631246,-3.865561724,-2.778222799,19.46612167
132.3999939,-9.383333206,302.1499939,4010.956502647458,-2.423759937,-3.185376167,19.46612167
117.7166672,-26.10000038,303.4166565,4010.9665026636703,3.650009871,-1.815424919,19.46612167
120.8666687,-19.08333397,316.2833252,4010.9765026798827,1.825004935,-3.501518726,19.46612167
149.2666626,3.099999905,332.2166748,4010.9865026960947,1.623823285,-5.201982498,19.46612167
175.7166595,18.95000076,345.5833435,4010.996502712307,6.159990311,-1.978286266,19.46612167
161.5,5.099999905,347.0,4011.006502728519,1.666933656,-1.973496199,19.46612167
161.3666687,0.8166666627,348.3999939,4011.0165027447315,2.193837881,-4.473896503,19.46612167
154.8000031,1.233333349,349.8333435,4011.026502760944,-0.7472461462,-5.906118393,19.46612167
148.4499969,7.983333111,346.0666809,4011.036502777156,1.575922966,-2.136357546,19.46612167
163.0333405,15.78333378,349.9500122,4011.0465027933683,2.28484869,0.4023633003,19.46612167
142.4499969,18.91666603,361.2333374,4011.0565028095803,-1.887275457,1.274150491,19.46612167
125.1833344,15.53333378,370.3833313,4011.0665028257927,-3.415297985,-2.869233608,19.46612167
116.6166687,19.63333321,367.6333313,4011.076502842005,-3.362607479,-8.076005936,19.46612167
125.6333313,24.68333244,364.0666809,4011.086502858217,-0.08143066615,-3.630849838,19.46612167
126.4833298,20.93333244,369.3166809,4011.0965028744295,0.9148975015,-2.208208084,19.46612167
116.4000015,12.96666622,359.6499939,4011.1065028906414,0.5748047233,-0.378413111,19.46612167
103.6666641,6.150000095,345.6333313,4011.116502906854,-3.137475729,-3.099155426,19.46612167
99.96666718,3.416666746,341.3999939,4011.1265029230663,-0.2586621344,-2.907553911,19.46612167
103.1333313,7.633333206,334.1666565,4011.136502939278,6.337222099,-0.09101074934,19.46612167
100.9499969,17.85000038,326.1166687,4011.1465029554906,3.314707279,2.658471823,19.46612167
90.71666718,32.46666718,329.8500061,4011.1565029717026,-0.934057653,-1.106499076,18.06323814
98.16666412,49.31666565,335.1166687,4011.166502987915,-1.729204178,-3.094365358,19.46612167
116.2833328,52.79999924,341.7000122,4011.1765030041274,1.336421013,-1.652563572,16.14243317
112.3499985,54.26666641,344.4500122,4011.1865030203394,4.957690716,0.4933740497,15.95562077
90.68333435,64.48332977,343.0333252,4011.196503036552,1.959126115,3.832031488,16.08974266
77.01667023,85.58333588,339.3166809,4011.206503052764,0.1580712944,-0.799936533,19.46612167
77.25,95.03333282,326.7999878,4011.216503068976,-1.810634851,-3.94220233,19.46612167
73.26667023,60.48333359,308.1666565,4011.2265030851886,-3.946992397,1.211879969,19.46612167
79.8666687,40.98333359,318.1499939,4011.2365031014006,2.639311552,1.307680726,17.18666077
73.93333435,29.85000038,316.6499939,4011.246503117613,0.3161425889,0.723295927,-0.06706055254
66.34999847,32.78333282,328.8666687,4011.2565031338254,-2.337539196,-0.5652246475,6.02107954
58.09999847,49.61666489,331.2666626,4011.2665031500374,0.3640429974,-2.471660376,5.225933075
60.91666794,61.28333282,330.7666626,4011.2765031662498,4.425996304,0.06706055254,10.75842857
60.48333359,59.29999924,330.4333191,4011.2865031824617,-3.664380074,1.144819379,19.46612167
44.73333359,57.98333359,332.0,4011.296503198674,1.63340342,0.239501968,7.721543312
35.93333435,65.91666412,330.8999939,4011.3065032148866,-2.256108522,-2.572251081,16.82261848
34.96666718,69.83333588,328.0833435,4011.3165032310985,-1.350791097,-2.44291997,6.940766811
34.88333511,66.6333313,327.2999878,4011.326503247311,4.109853745,2.399809599,17.90037727
31.60000038,63.28333282,324.5499878,4011.336503263523,-3.6068995,3.257226706,10.55245686
27.48333359,61.91666794,324.7333374,4011.3465032797353,0.2826123238,-0.6658154726,15.26585484
27.76666641,64.90000153,326.9833374,4011.3565032959477,1.566342831,-5.561235428,12.03736877
29.91666603,71.80000305,329.1833191,4011.3665033121597,-0.06227051094,-2.318378925,1.547182679
30.75,71.56666565,329.6166687,4011.376503328372,2.888393641,1.585502982,13.59413147
30.11666679,72.09999847,330.7166748,4011.386503344584,0.2155517638,3.285966873,-0.4023633003
27.26666641,71.84999847,332.7333374,4011.3965033607965,-4.512217045,-0.05269043148,6.873706341
27.35000038,69.3833313,334.2833252,4011.406503377009,-1.360371113,-3.515888929,0.2874023616
29.48333359,70.83333588,333.6499939,4011.416503393221,1.278940439,1.413061619,6.255791187
29.64999962,70.16666412,332.2000122,4011.4265034094333,1.245410204,2.208208084,-0.378413111
27.85000038,65.51667023,330.8333435,4011.4365034256452,-0.1437011808,-0.009580078535,-0.546064496
25.64999962,62.78333282,331.8500061,4011.4465034418577,-3.252436638,-3.027304888,-0.9675879478
27.03333282,61.31666565,330.2000122,4011.45650345807,-3.276386976,-1.868115306,-3.276386976
31.33333397,55.18333435,328.1666565,4011.466503474282,2.706372261,3.070415258,8.052056313
32.34999847,52.41666794,325.6333313,4011.4765034904945,-0.799936533,2.232158184,4.517006874
27.88333321,49.04999924,320.7999878,4011.486503506707,-2.174677849,-0.7903564572,6.562353611
22.43333244,47.20000076,317.2666626,4011.496503522919,2.074086905,-3.664380074,15.16047382
18.51666641,46.91666794,315.9833374,4011.5065035391312,1.997446418,-3.123105526,10.14530277
16.21666718,46.53333282,314.5,4011.516503555343,-0.2778222859,1.470542073,12.94747639
12.30000019,47.04999924,315.8166809,4011.5265035715556,0.6562353969,0.7664062977,8.784932137
8.0,48.40000153,316.3666687,4011.536503587768,-1.786684632,-2.438129902,7.6401124
5.449999809,48.68333435,320.0833435,4011.54650360398,-3.467988491,-4.775669098,6.897656441
4.599999905,49.76666641,321.5499878,4011.5565036201924,3.041674852,-0.9101074338,11.77870655
4.133333206,48.28333282,322.9666748,4011.5665036364044,-1.360371113,1.676513791,15.10299397
4.199999809,43.90000153,321.7000122,4011.576503652617,0.9867480993,1.216669917,12.68402386
3.233333349,39.53333282,321.2999878,4011.586503668829,-7.046147823,-2.112407207,16.20470238
2.433333397,34.56666565,322.5666809,4011.596503685041,-2.586621284,-4.425996304,15.37602615
0.9333333373,31.73333359,321.7833252,4011.6065037012536,0.1963916123,1.049018621,15.96041107
-1.799999952,31.66666603,319.5166626,4011.6165037174655,-1.187929749,3.271596909,10.45186615
-4.466666698,31.20000076,320.25,4011.626503733678,-1.207089901,-0.3257226646,4.220024586
-6.849999905,33.93333435,323.5166626,4011.6365037498904,-4.085903645,-3.515888929,16.52563477
-6.483333111,42.26666641,324.4500122,4011.6465037661023,1.585502982,-2.145937681,14.09708595
-6.633333206,48.40000153,322.1833191,4011.6565037823148,3.860771656,1.116079092,17.5459137
-9.833333015,51.36666489,321.2666626,4011.6665037985267,-0.009580078535,2.950664282,11.37155342
-16.76666641,54.20000076,318.6000061,4011.676503814739,-2.749482632,-0.1916015744,17.35910225
-20.41666603,56.54999924,316.7333374,4011.6865038309516,-2.778222799,-4.402046204,19.2511673
-24.08333397,60.15000153,312.3333435,4011.6965038471635,-1.058598638,0.2251318395,16.76513672
-21.85000038,65.08333588,311.5833435,4011.706503863376,-0.5508545041,2.452500105,15.62510777
-21.16666603,68.6333313,311.3333435,4011.716503879588,-1.417851567,-0.0239501968,13.80489349
-21.39999962,73.78333282,310.3333435,4011.7265038958003,-2.854863405,-1.599873066,13.00974655
-23.01666641,70.34999847,309.0499878,4011.7365039120127,-3.9853127,-5.939648628,13.37858009
-25.58333397,69.46666718,306.7333374,4011.7465039282247,2.931504011,0.9292676449,14.02044487
-26.11666679,69.5,304.4333191,4011.756503944437,-2.945874214,3.726650476,13.98212433
-30.16666603,64.8666687,302.3333435,4011.7665039606495,-0.6514453292,0.2778222859,5.882168293
-36.68333435,62.66666794,300.8833313,4011.7765039768615,-4.823569775,-2.706372261,12.28166103
-39.76666641,64.3833313,301.1333313,4011.786503993074,-1.599873066,-1.187929749,12.88520527
-42.66666794,67.03333282,300.3333435,4011.796504009286,1.619033217,2.265688658,7.012617588
-41.38333511,69.93333435,302.8166809,4011.8065040254983,-1.034648538,4.052373409,-0.9196875095
-40.70000076,73.68333435,305.9833374,4011.8165040417107,-1.834585071,0.2778222859,-3.511098862
-38.59999847,75.6166687,308.5333252,4011.8265040579226,-3.444038153,-2.902763844,1.595083117
-38.25,75.78333282,308.0166626,4011.836504074135,2.212998152,0.06227051094,-5.431904316
-42.46666718,85.3666687,307.4666748,4011.846504090347,1.23104012,3.774550915,-0.1437011808
-45.40000153,96.58333588,301.7999878,4011.8565041065594,-1.504072309,3.999682903,-1.216669917
-48.86666489,104.4333344,297.3999939,4011.866504122772,-5.225933075,0.6514453292,1.671723723
-55.68333435,105.2666702,299.3833313,4011.876504138984,-2.265688658,-2.735112429,-0.5748047233
-53.75,98.80000305,303.3833313,4011.8865041551962,2.136357546,1.7914747,-14.3796978
-58.79999924,99.91666412,306.6499939,4011.896504171408,0.7664062977,3.678750038,-4.909790039
-69.48332977,100.2833328,305.0,4011.9065041876206,-2.495610476,3.812871218,-2.347119331
-67.5,93.48332977,304.5833435,4011.916504203833,-6.346802235,-0.9771680236,2.466870308
-69.90000153,93.78333282,304.6833191,4011.926504220045,-1.738784313,-4.392466068,0.3496728539
-82.25,93.09999847,299.9833374,4011.9365042362574,1.944755912,2.299218893,-15.68258858
-82.30000305,91.51667023,299.6000061,4011.9465042524694,1.087338924,4.991220951,-12.14753914
-64.68333435,79.0,303.5,4011.956504268682,-1.561552763,2.66326189,-10.61472702
-57.03333282,79.6333313,302.7833252,4011.966504284894,-5.000801086,0.1580712944,-9.71420002
-52.51666641,83.06666565,296.5499878,4011.976504301106,-3.415297985,-4.378096104,-0.6466553211
-58.53333282,89.05000305,290.6333313,4011.9865043173186,2.342329264,1.346001029,-7.022197723
-65.78333282,90.19999695,296.6000061,4011.996504333531,0.03353027627,4.411626339,-3.755390882
-66.06666565,78.6166687,308.8999939,4012.006504349743,-2.308799028,-0.1916015744,0.1245410219
-76.94999695,67.55000305,310.8500061,4012.0165043659554,-5.230722904,1.422641635,-0.5987548828
-84.19999695,81.41666412,303.9833374,4012.0265043821673,-2.28484869,-2.754272461,5.221142769
-92.01667023,89.76667023,300.5666809,4012.0365043983797,1.369951248,3.065625191,-0.9675879478
-96.6166687,89.53333282,296.6833191,4012.046504414592,-2.399809599,5.163662434,4.425996304
-94.55000305,85.80000305,294.5499878,4012.056504430804,-4.277504921,0.4646338224,-5.566025734
-91.56666565,85.94999695,300.8166809,4012.0665044470165,-0.8765771985,0.1149609387,0.6897656322
-81.18333435,78.06666565,302.6666565,4012.0765044632285,-1.43222177,0.02874023467,5.005590916
-72.76667023,70.0,300.4166565,4012.086504479441,0.205971688,3.774550915,0.05269043148
-69.03333282,68.40000153,300.9500122,4012.0965044956533,-2.500400543,6.38033247,7.740703583
-65.41666412,67.78333282,304.7666626,4012.1065045118653,-3.276386976,1.901645541,-2.48603034
-76.84999847,80.43333435,311.2666626,4012.1165045280777,-2.730322361,-0.3927832246,8.487949371
-98.05000305,93.59999847,305.6833191,4012.1265045442897,-0.6945556998,-0.5748047233,5.168452263
-110.4000015,102.6833344,301.6833191,4012.136504560502,1.619033217,2.165097713,-1.259780288
-107.4000015,107.6166687,301.8666687,4012.1465045767145,-1.916015744,3.233276606,1.111289144
-103.3833313,111.3333359,303.2833252,4012.1565045929265,-6.088140011,-0.4454736412,2.236948252
-99.26667023,105.0999985,309.6833191,4012.166504609139,-1.216669917,-2.84528327,6.753955364
-102.3000031,96.30000305,311.5166626,4012.176504625351,-2.227368355,-0.9292676449,6.006709099
-98.19999695,100.8000031,308.5,4012.1865046415633,-0.2107617259,2.007026434,-2.711162329
-97.06666565,101.6166687,306.4666748,4012.1965046577757,-2.212998152,2.720742226,3.012934685
-99.46666718,96.3833313,306.8500061,4012.2065046739876,-7.745493412,-0.8478369713,-2.639311552
-99.3833313,93.3833313,312.4833374,4012.2165046902,-0.311352551,-1.235830188,5.728887081
-94.09999847,98.01667023,304.2833252,4012.226504706412,-2.476450205,0.5364844203,0.4023633003
-89.6166687,102.4666672,297.7000122,4012.2365047226244,1.417851567,3.051254988,-3.645219803
-88.78333282,109.2166672,298.6666565,4012.246504738837,-2.184257984,2.543510914,0.5173242688
-92.09999847,114.6333313,299.0333252,4012.256504755049,-5.901328564,-0.2155517638,-6.236630917
-88.73332977,119.5500031,299.0833435,4012.266504771261,-1.460961938,-1.331630945,2.629731655
-82.90000153,119.5333328,298.1166687,4012.2765047874736,0.9627978802,-0.5700146556,2.965034246
-83.98332977,117.4000015,297.1666565,4012.2865048036856,0.7711963058,4.392466068,2.572251081
-98.48332977,114.7333298,296.9333191,4012.296504819898,-4.339775562,6.030659676,-0.1341211051
-117.0333328,121.8333359,294.4333191,4012.30650483611,-5.149291992,2.069297075,-10.01597214
-115.4333344,118.9000015,294.2666626,4012.3165048523224,-1.43222177,1.408271551,-4.718188763
-107.9499969,112.7833328,293.7999878,4012.326504868535,1.63340342,0.8095166087,-9.182505608
-98.09999847,107.3666687,298.5166626,4012.336504884747,-1.207089901,3.913462162,-13.65640163
-95.16666412,102.9166641,304.1166687,4012.346504900959,-1.695673943,4.464316368,-10.08303261
-101.5999985,107.8666687,300.2666626,4012.356504917171,-5.939648628,0.9819580317,-17.52196312
-104.8499985,113.9833298,293.5499878,4012.3665049333836,-0.1245410219,-0.3544628918,-4.320615292
-107.0833359,116.9666672,282.6000061,4012.376504949596,0.718505919,3.084785223,-5.724096775
-102.6166687,114.4666672,281.7000122,4012.386504965808,-3.803291082,5.589975834,-5.795947552
-98.34999847,103.3666687,284.9166565,4012.3965049820204,-3.060835123,5.901328564,-2.739902496
-91.1166687,87.30000305,289.4166565,4012.4065049982323,-6.969507217,-1.221459985,-13.17739773
-84.8666687,82.94999695,296.1000061,4012.4165050144447,-0.7520361543,-1.580712914,-1.374741316
-87.81666565,78.1166687,301.5,4012.426505030657,0.8430469036,0.1820214987,-8.717871666
-91.05000305,78.1333313,302.1833191,4012.436505046869,0.6035449505,3.113525629,-4.263134956
-88.51667023,70.18333435,303.0166626,4012.4465050630815,-4.47868681,3.118315458,5.316943645
-87.1166687,59.45000076,301.6333313,4012.4565050792935,-4.148173809,-1.954336047,-0.3640429974
-86.58333588,53.31666565,295.6833191,4012.466505095506,2.256108522,0.105380863,8.660390854
-85.40000153,50.5,293.5499878,4012.4765051117183,1.441801786,-0.9244775772,1.221459985
-89.3666687,57.54999924,292.7000122,4012.4865051279303,0.4071533382,3.362607479,-1.259780288
-93.68333435,65.78333282,292.6333313,4012.4965051441427,-3.889511824,2.62015152,6.02107954
-93.40000153,75.26667023,291.8500061,4012.5065051603547,-6.126460075,-1.767524481,-0.2011816502
-93.96666718,75.18333435,290.0499878,4012.516505176567,1.642983437,-1.049018621,4.425996304
-90.43333435,62.83333206,293.1333313,4012.5265051927795,2.251318455,-0.8813672066,-0.3305127025
-86.41666412,57.86666489,295.5,4012.5365052089915,-0.7376660705,3.439248085,-2.519560575
-91.1333313,59.81666565,297.8166809,4012.546505225204,-8.775351524,5.077441692,10.59556675
-97.6166687,62.40000153,296.4500122,4012.5565052414163,-6.361172199,-0.8526269794,3.793711185
-94.28333282,64.21666718,293.8333435,4012.5665052576283,-2.519560575,-1.489702225,11.86492729
-85.6333313,72.25,296.9666748,4012.5765052738407,-1.623823285,0.8765771985,5.398374081
-87.73332977,88.21666718,296.3500061,4012.5865052900526,-1.834585071,3.616479635,-4.742138863
-89.48332977,100.3499985,297.2000122,4012.596505306265,-4.406836033,7.132368565,-1.844165087
-99.55000305,109.4833298,302.7833252,4012.6065053224775,-2.347119331,0.5652246475,-3.621269703
-101.1500015,109.1333313,306.8666687,4012.6165053386894,0.9915381074,1.844165087,1.757944465
-104.6500015,102.7333298,303.6000061,4012.626505354902,-0.2921923995,-0.8286768198,4.392466068
-106.4333344,116.5166702,301.9500122,4012.636505371114,-2.121987343,2.586621284,-3.645219803
-106.0,120.5333328,305.1000061,4012.646505387326,-1.738784313,4.775669098,-2.371069431
-126.3166656,111.6166687,299.6499939,4012.6565054035386,-1.829795003,-0.8669971228,-7.137158394
-137.3999939,96.56666565,298.6166687,4012.6665054197506,5.637876034,1.221459985,1.140029311
-144.3666687,92.93333435,303.6166687,4012.676505435963,-1.547182679,1.801054716,-0.2874023616
-163.4499969,94.1333313,311.5,4012.686505452175,1.092128992,4.282295227,-7.347920418
-175.2666626,93.41666412,317.1666565,4012.6965054683874,-11.82660675,4.99601078,-3.999682903
-187.2166595,95.31666565,317.7999878,4012.7065054846,-5.35526371,-1.034648538,-12.21460056
-182.4333344,90.53333282,319.3999939,4012.7165055008118,2.256108522,-0.1963916123,-11.05062103
-170.0166626,92.09999847,318.6333313,4012.726505517024,4.493056774,-1.571132898,-17.33036232
-162.6999969,92.71666718,308.0666809,4012.736505533236,-1.743574262,3.94220233,-15.92688084
-173.8000031,99.83333588,300.0833435,4012.7465055494486,-6.500083447,3.923042059,-2.074086905
-189.8999939,98.41666412,305.5499878,4012.756505565661,-10.95960999,-0.6083349586,-6.049819469
-175.4833374,82.80000305,309.4500122,4012.766505581873,3.429668188,0.4933740497,-0.08622070402
-151.5,70.40000153,311.0666809,4012.7765055980854,-0.8238867521,2.917133808,-5.537285328
-139.9833374,68.43333435,312.5666809,4012.7865056142978,-4.038002968,3.990102768,-3.678750038
-133.3833313,77.3833313,317.2166748,4012.7965056305097,-9.790840149,7.683222771,-6.251001358
-135.0166626,85.3833313,312.4666748,4012.806505646722,0.1484912187,-1.738784313,-13.2492485
-143.8500061,99.56666565,302.2000122,4012.816505662934,7.726333141,1.561552763,-5.163662434
-149.6666718,117.8000031,303.6166687,4012.8265056791465,1.403481483,0.7903564572,-1.628613353
-145.5,110.4166641,304.6000061,4012.836505695359,-6.552773952,3.44882822,-8.210126877
-159.4333344,115.5666656,302.8666687,4012.846505711571,-11.2613821,4.828359604,-0.6993457079
-189.1333313,122.5999985,295.5666809,4012.8565057277833,-5.273833275,-0.4550537169,0.1676513702
-195.5,120.1333313,295.8833313,4012.8665057439953,4.018843174,1.144819379,1.642983437
-200.6666718,118.4666672,294.9500122,4012.8765057602077,6.725214958,2.519560575,-6.159990311
-215.5166626,103.9833298,301.8500061,4012.88650577642,-4.47868681,4.919370174,-1.983076215
-233.6333313,77.98332977,306.8500061,4012.896505792632,-10.01118183,4.129014015,-3.391347885
-237.4666595,75.80000305,302.7000122,4012.9065058088445,-2.826123238,-1.901645541,-5.168452263
-230.8000031,79.0,310.1000061,4012.9165058250564,1.010698318,1.815424919,4.679868221
-223.0500031,72.6333313,314.9333191,4012.926505841269,-2.46208024,0.05269043148,3.194956303
-219.2666626,62.46666718,315.0,4012.9365058574813,-9.163345337,4.751718998,6.155200481
-229.8999939,50.70000076,313.1666565,4012.9465058736932,-12.52595234,4.617598057,16.61185646
-235.6833344,45.63333511,318.9500122,4012.9565058899057,-10.69615746,-0.76161623,12.61217308
-230.5666656,44.75,326.4500122,4012.9665059061176,2.984194517,0.6562353969,19.46612167
-217.8000031,42.23333359,326.5499878,4012.97650592233,5.652246475,-0.546064496,13.06722736
-216.7833405,40.06666565,320.7166748,4012.9865059385425,3.056045055,4.248764992,15.81191921
-223.75,36.38333511,310.7666626,4012.9965059547544,-10.96440029,0.1293310672,6.557563782
-228.75,41.71666718,303.8166809,4013.006505970967,-1.3891114,0.7137158513,13.40732002
-234.0333405,44.40000153,305.7000122,4013.016505987179,-4.885839939,-1.168769598,19.46612167
-233.0333405,34.18333435,318.8500061,4013.026506003391,-1.839375019,5.886958122,11.27096272
-230.75,28.39999962,329.8333435,4013.0365060196036,2.26089859,8.195756912,19.46612167
-222.5833282,40.5,338.1000061,4013.0465060358156,-2.030976534,3.003354549,18.13987923
-214.3666687,43.70000076,339.5499878,4013.056506052028,-10.20278358,2.672842026,19.46612167
-209.5333405,38.43333435,336.3500061,4013.0665060682404,-9.407637596,-0.857417047,19.46612167
-206.3666687,34.11666489,333.3666687,4013.0765060844524,-0.6370752454,2.634521484,8.966953278
-218.7833405,36.13333511,323.3999939,4013.086506100665,1.777104616,6.112090111,19.36612892
-220.5333405,40.93333435,319.5833435,4013.0965061168768,-4.23439455,-0.2011816502,18.86317444
